time,seconds_elapsed,z,y,x
1708009821471028200,0.2530283203125,0.028426170349121094,0.009338892996311188,0.014122188091278076
1708009821489583600,0.27158349609375,0.029021263122558594,0.04756094515323639,-0.0314488559961319
1708009821508138800,0.290138671875,0.036205291748046875,0.04886692762374878,-0.049347370862960815
1708009821526694100,0.308694091796875,0.043384552001953125,0.015462804585695267,-0.020840615034103394
1708009821545249500,0.32724951171875,0.061641693115234375,0.020486954599618912,0.002040654420852661
1708009821563805000,0.345804931640625,0.03859901428222656,0.021534711122512817,-0.035122066736221313
1708009821582360300,0.3643603515625,0.03620719909667969,0.031343474984169006,-0.05897568166255951
1708009821600915700,0.382915771484375,0.03620719909667969,0.005093086510896683,-0.027849748730659485
1708009821619471000,0.40147119140625,0.03560829162597656,-0.02375303953886032,0.021254539489746094
1708009821638026200,0.420026123046875,0.042641639709472656,0.006172332912683487,-0.0038837939500808716
1708009821656582000,0.438581787109375,0.03740882873535156,0.005673263221979141,-0.03845442831516266
1708009821675137000,0.457136962890625,0.037705421447753906,-0.018496617674827576,-0.02180272340774536
1708009821693692400,0.4756923828125,0.048778533935546875,-0.013879109174013138,0.027271732687950134
1708009821712247800,0.494247802734375,0.0439910888671875,-0.022115394473075867,0.015325158834457397
1708009821730803200,0.51280322265625,0.03022289276123047,-0.011517588049173355,-0.030325323343276978
1708009821749358600,0.531358642578125,0.03859710693359375,0.026757027953863144,-0.021045982837677002
1708009821767914000,0.5499140625,0.03994274139404297,0.022021781653165817,-0.0031454116106033325
1708009821786469400,0.568469482421875,0.042781829833984375,0.02911856770515442,0.013441339135169983
1708009821805024500,0.5870244140625,0.044577598571777344,0.04578150063753128,-0.018877163529396057
1708009821823580000,0.605579833984375,0.04577445983886719,0.05178060382604599,-0.039218053221702576
1708009821842135300,0.62413525390625,0.049365997314453125,0.02424171194434166,-0.02487342059612274
1708009821860690700,0.642690673828125,0.04697227478027344,0.024370979517698288,-0.00930766761302948
1708009821879246000,0.66124609375,0.021831512451171875,0.03647097200155258,-0.0418078750371933
1708009821897801500,0.679801513671875,0.008664131164550781,0.022155798971652985,-0.050254032015800476
1708009821916356900,0.69835693359375,0.015094757080078125,0.05933130532503128,0.00033724308013916016
1708009821934912000,0.716912109375,0.03439903259277344,0.00810108333826065,0.02738434076309204
1708009821953467400,0.73546728515625,0.029310226440429688,-0.003723256289958954,-0.0026846975088119507
1708009821972022800,0.754022705078125,0.062530517578125,0.0433378741145134,-0.04448413848876953
1708009821990578200,0.772578125,0.08542156219482422,0.013868674635887146,0.0005399882793426514
1708009822009133600,0.791133544921875,0.02856159210205078,-0.08785597234964371,0.024931490421295166
1708009822027689000,0.80968896484375,0.06746292114257812,0.06483666598796844,-0.00782911479473114
1708009822046244000,0.828244140625,0.0351409912109375,0.042182184755802155,-0.03052079677581787
1708009822064799500,0.846799560546875,-0.01827716827392578,-0.07982940226793289,-0.023054495453834534
1708009822083355000,0.86535498046875,0.036487579345703125,0.045614540576934814,-0.004237353801727295
1708009822101910300,0.88391015625,0.03888130187988281,0.051711536943912506,-0.01269569993019104
1708009822120465700,0.902465576171875,0.012547492980957031,-0.07456556707620621,-0.040294453501701355
1708009822139021000,0.92102099609375,0.044567108154296875,0.04702839255332947,-0.037827372550964355
1708009822157576200,0.939576171875,0.05070304870605469,0.10889653116464615,-0.02214394509792328
1708009822176131600,0.958131591796875,0.028406143188476562,-0.022301167249679565,0.00882771611213684
1708009822194687000,0.97668701171875,0.02122211456298828,0.013258203864097595,-0.011614695191383362
1708009822213242400,0.995242431640625,0.04935169219970703,0.13050004839897156,-0.02002084255218506
1708009822231797800,1.0137978515625,0.03543663024902344,0.014691278338432312,-0.010501399636268616
1708009822250353000,1.032352783203125,0.021223068237304688,-0.004289582371711731,0.0004949122667312622
1708009822268908300,1.050908203125,0.04456806182861328,0.05915054678916931,-0.028297290205955505
1708009822287463700,1.069463623046875,0.02062702178955078,0.03503967076539993,-0.03429746627807617
1708009822306019000,1.08801904296875,0.006862640380859375,-0.032982513308525085,-0.011263683438301086
1708009822324574500,1.106574462890625,0.03319835662841797,-0.004340901970863342,0.008944615721702576
1708009822343129900,1.1251298828125,0.05325126647949219,0.018579117953777313,-0.010075703263282776
1708009822361685000,1.14368505859375,0.049361228942871094,-0.020576685667037964,-0.04352307319641113
1708009822380240400,1.162240478515625,0.04951286315917969,-0.02541510760784149,-0.013536632061004639
1708009822398795800,1.180795654296875,0.056694984436035156,-0.007464662194252014,-0.015932604670524597
1708009822417351200,1.19935107421875,0.043677330017089844,-0.014540910720825195,-0.014708757400512695
1708009822435906600,1.217906494140625,0.03649616241455078,-0.055373482406139374,-0.024193331599235535
1708009822454461700,1.236461669921875,0.03634834289550781,0.06688004732131958,-0.01667197048664093
1708009822473017000,1.25501708984375,0.05071258544921875,0.07869607210159302,-0.0034019500017166138
1708009822491572500,1.273572509765625,0.01584625244140625,0.049423351883888245,-0.047652751207351685
1708009822510127900,1.2921279296875,0.057740211486816406,0.21743755042552948,-0.04044248163700104
1708009822528683300,1.310683349609375,0.08631324768066406,0.07118670642375946,-0.03609943389892578
1708009822547238700,1.32923876953125,0.02061748504638672,0.07624457031488419,0.09740457683801651
1708009822565793800,1.347793701171875,0.13268756866455078,0.21162599325180054,0.08002984523773193
1708009822584349200,1.36634912109375,0.07956218719482422,0.32072848081588745,0.03597442805767059
1708009822602904600,1.384904541015625,0.10679340362548828,0.36146602034568787,0.0049596428871154785
1708009822621460000,1.4034599609375,0.1449422836303711,0.3566837012767792,-0.004949524998664856
1708009822640015000,1.42201513671875,0.11754798889160156,0.2176673412322998,-0.007327377796173096
1708009822658570800,1.44057080078125,0.12651634216308594,0.3347485661506653,-0.04942438006401062
1708009822677126000,1.4591259765625,0.14235782623291016,0.4051808714866638,-0.15362168848514557
1708009822695681300,1.477681396484375,0.10642433166503906,0.49236539006233215,-0.3154892325401306
1708009822714236700,1.496236572265625,0.1258535385131836,0.8362482190132141,-0.2479228675365448
1708009822732792000,1.5147919921875,0.11655330657958984,1.2104170322418213,-0.04639914631843567
1708009822751347200,1.53334716796875,-0.05629444122314453,1.2526103258132935,-0.04654394090175629
1708009822769902600,1.551902587890625,-0.16764450073242188,1.5203479528427124,-0.08831438422203064
1708009822788458000,1.5704580078125,-0.2275238037109375,1.2178457975387573,0.016262218356132507
1708009822807013400,1.589013427734375,-0.31194400787353516,0.6377447843551636,0.3254101276397705
1708009822825568800,1.60756884765625,-0.05833911895751953,0.4493342339992523,0.39655813574790955
1708009822844124000,1.6261240234375,0.07945919036865234,0.291358083486557,0.33808720111846924
1708009822862679300,1.64467919921875,0.21189117431640625,0.21268236637115479,0.15957298874855042
1708009822881234700,1.663234619140625,0.1595296859741211,-0.06150431931018829,0.02055862545967102
1708009822899790000,1.6817900390625,0.3018341064453125,-0.21296007931232452,-0.25753462314605713
1708009822918345500,1.700345458984375,0.1127004623413086,-0.0033966507762670517,-0.32414740324020386
1708009822936900600,1.718900634765625,0.2882089614868164,0.37597814202308655,-0.22296622395515442
1708009822955456000,1.7374560546875,0.02783203125,0.3090151250362396,-0.13913869857788086
1708009822974011400,1.756011474609375,-0.2014179229736328,1.0419433116912842,0.035588763654232025
1708009822992566800,1.77456689453125,-0.3155984878540039,0.7143864035606384,-0.07824291288852692
1708009823011122200,1.7931220703125,-0.22358036041259766,0.7964990735054016,0.2450464963912964
1708009823029677300,1.81167724609375,-0.30527782440185547,0.7413396835327148,0.3043942451477051
1708009823048232700,1.830232666015625,-0.18646621704101562,0.508171558380127,0.09847564995288849
1708009823066788000,1.8487880859375,-0.07662487030029297,0.38017621636390686,-0.056917235255241394
1708009823085343500,1.867343505859375,0.2654409408569336,0.2590484321117401,-0.10689055919647217
1708009823103898600,1.885898681640625,0.26468849182128906,-0.15996988117694855,0.07343589514493942
1708009823122454300,1.904454345703125,0.43092823028564453,-0.38842806220054626,-0.17879588901996613
1708009823141009400,1.923009521484375,0.4074363708496094,0.4071267247200012,-0.2645236551761627
1708009823159564800,1.941564697265625,0.18343830108642578,0.4155285358428955,-0.10078519582748413
1708009823178120200,1.9601201171875,-0.03861808776855469,0.252978652715683,0.03637078404426575
1708009823196675600,1.978675537109375,-0.2232656478881836,0.6872218251228333,0.09557344019412994
1708009823215230700,1.997230712890625,-0.21698474884033203,0.5507153272628784,-0.16165347397327423
1708009823230858800,2.012858642578125,-0.6039314270019531,0.7439331412315369,-0.2292306274175644
1708009823249414100,2.0314140625,-0.36272430419921875,0.5627017617225647,0.10985852032899857
1708009823267969300,2.04996923828125,0.044559478759765625,0.6379560232162476,0.3125225305557251
1708009823286524700,2.068524658203125,-0.15594482421875,-0.2585931122303009,0.2626726031303406
1708009823305080000,2.087080078125,0.22683048248291016,0.10865870118141174,0.11961007863283157
1708009823323635500,2.105635498046875,0.21906661987304688,-0.13335633277893066,-0.3049839735031128
1708009823342190800,2.12419091796875,0.1906566619873047,-0.4633409082889557,-0.5591680407524109
1708009823360746000,2.14274609375,0.38967418670654297,-0.24416039884090424,-0.10673552751541138
1708009823379301400,2.16130126953125,0.35645484924316406,-0.6862472295761108,0.4856431484222412
1708009823397856800,2.179856689453125,0.2436361312866211,-0.38627898693084717,0.385967493057251
1708009823416412200,2.198412109375,0.242156982421875,0.33466294407844543,-0.05882178246974945
1708009823434967600,2.216967529296875,-0.20252513885498047,0.3200981318950653,-0.1522599458694458
1708009823453522700,2.235522705078125,-0.1683969497680664,-0.08823923766613007,-0.08230619132518768
1708009823472078000,2.254078125,-0.08191680908203125,0.4659285843372345,-0.015178725123405457
1708009823490633500,2.272633544921875,-0.22527408599853516,0.3422897160053253,-0.30046314001083374
1708009823509188900,2.29118896484375,-0.1013946533203125,0.13909900188446045,-0.05720140039920807
1708009823527744300,2.309744140625,0.16104698181152344,0.08292966336011887,0.20402640104293823
1708009823546299600,2.328299560546875,0.020089149475097656,-0.1133590042591095,0.18477891385555267
1708009823564854800,2.346854736328125,0.053623199462890625,-0.13295871019363403,-0.0787753313779831
1708009823583410200,2.36541015625,-0.016683578491210938,-0.11936692893505096,-0.25497132539749146
1708009823601965600,2.383965576171875,0.04378223419189453,-0.2834572494029999,-0.13245975971221924
1708009823620521000,2.40252099609375,0.18293380737304688,-0.15447062253952026,-0.33261507749557495
1708009823639076000,2.421076171875,0.10181522369384766,0.2989504039287567,-0.33060911297798157
1708009823657631500,2.439631591796875,0.07395362854003906,0.2521325647830963,0.0858817845582962
1708009823676187000,2.458186767578125,-0.014361381530761719,-0.5283153653144836,0.324165403842926
1708009823694742300,2.4767421875,-0.08501625061035156,0.2868579626083374,0.18397627770900726
1708009823713297700,2.495297607421875,0.08465957641601562,0.399694561958313,-0.36705532670021057
1708009823731852800,2.513852783203125,-0.4133119583129883,-0.4788433313369751,-0.04277883470058441
1708009823750408200,2.532408203125,-0.0957937240600586,-0.055255066603422165,0.35086435079574585
1708009823768963600,2.550963623046875,-0.0919036865234375,-0.7382952570915222,0.169653058052063
1708009823787519000,2.56951904296875,-0.2633628845214844,-0.8354265093803406,-0.06427270174026489
1708009823806074400,2.588074462890625,-0.102630615234375,-0.5100349187850952,-0.2801107168197632
1708009823824629800,2.606629638671875,0.13918113708496094,-0.17924241721630096,0.15755102038383484
1708009823843185000,2.625184814453125,0.07425880432128906,-1.0178889036178589,0.06829091161489487
1708009823861740300,2.643740234375,0.1601572036743164,-0.307868629693985,0.06641282886266708
1708009823880295700,2.662295654296875,0.13832569122314453,-0.22721318900585175,-0.24536541104316711
1708009823898851000,2.68085107421875,0.2272205352783203,-0.7024657130241394,0.08213632553815842
1708009823917406500,2.699406494140625,0.07790946960449219,-0.9070221185684204,0.21317477524280548
1708009823935961600,2.717961669921875,0.2194805145263672,-0.23251664638519287,0.04728604853153229
1708009823954517000,2.73651708984375,-0.14289569854736328,-0.8461869955062866,-0.2551618218421936
1708009823973072400,2.755072265625,-0.08929157257080078,-1.208498239517212,-0.15907876193523407
1708009823991627800,2.773627685546875,0.18246841430664062,-0.8029689788818359,0.14219482243061066
1708009824010183200,2.79218310546875,0.27675437927246094,-0.7483972311019897,0.012170851230621338
1708009824028738600,2.810738525390625,-0.04492473602294922,-0.9110801219940186,-0.2565780282020569
1708009824047293700,2.829293701171875,0.2256336212158203,-0.46293845772743225,-0.3791442811489105
1708009824065849000,2.84784912109375,-0.08080673217773438,-0.460120290517807,0.05263516306877136
1708009824084404500,2.866404541015625,0.014957427978515625,-0.5336704850196838,0.09753986448049545
1708009824102959900,2.8849599609375,-0.03951740264892578,-0.13282150030136108,0.17242446541786194
1708009824121515300,2.903515380859375,-0.09876346588134766,-0.41219770908355713,-0.1198660135269165
1708009824140070400,2.9220703125,0.013764381408691406,-0.08718876540660858,-0.035846129059791565
1708009824158625800,2.940625732421875,0.010781288146972656,-0.5911445021629333,0.1415039747953415
1708009824177181200,2.95918115234375,0.07512855529785156,-0.504023015499115,0.17212803661823273
1708009824195736600,2.977736572265625,0.09698486328125,-0.19444704055786133,-0.08936071395874023
1708009824214292000,2.9962919921875,0.14877700805664062,-0.22176140546798706,-0.14934928715229034
1708009824232847400,3.014847412109375,0.05572795867919922,-0.5089731812477112,0.14428779482841492
1708009824251402500,3.033402587890625,0.07699203491210938,-0.7010215520858765,0.06712718307971954
1708009824269958000,3.0519580078125,-0.042102813720703125,-0.4439076781272888,-0.18376539647579193
1708009824288513300,3.07051318359375,0.05397510528564453,-0.2947470247745514,-0.3903079926967621
1708009824307068700,3.089068603515625,0.08750629425048828,-0.44676074385643005,-0.10227291285991669
1708009824325624000,3.1076240234375,0.03004932403564453,-0.5941956043243408,0.21477657556533813
1708009824344179200,3.12617919921875,0.008502006530761719,-0.43804627656936646,-0.10214808583259583
1708009824362734600,3.144734619140625,-0.05193614959716797,-0.36327987909317017,-0.49513545632362366
1708009824381290000,3.1632900390625,-0.021103858947753906,-0.23351478576660156,-0.19721469283103943
1708009824399845400,3.181845458984375,0.054900169372558594,-0.397752583026886,0.3197326064109802
1708009824418400800,3.20040087890625,0.04022693634033203,-0.4972023367881775,0.27782824635505676
1708009824436956200,3.2189560546875,-0.008852958679199219,-0.4107363820075989,-0.1422572135925293
1708009824455511300,3.23751123046875,0.04171943664550781,-0.05240533500909805,-0.08943547308444977
1708009824474066700,3.256066650390625,0.0467987060546875,-0.46826645731925964,0.22884586453437805
1708009824492622000,3.2746220703125,0.009382247924804688,-0.403289794921875,0.3172207772731781
1708009824511177500,3.293177490234375,0.06653594970703125,-0.052427247166633606,0.007359743118286133
1708009824529732900,3.31173291015625,0.04020500183105469,-0.08342079818248749,-0.011428654193878174
1708009824548288300,3.330288330078125,-0.02981090545654297,-0.360503613948822,0.17648577690124512
1708009824566843600,3.34884375,0.056082725524902344,-0.0592905655503273,0.17185133695602417
1708009824585398800,3.367398681640625,-0.006450653076171875,-0.06857328861951828,-0.1583198457956314
1708009824603954200,3.3859541015625,0.019308090209960938,-0.03483293950557709,-0.24632473289966583
1708009824622509600,3.404509521484375,0.08097171783447266,-0.11579688638448715,0.011150732636451721
1708009824641065000,3.42306494140625,0.07230186462402344,-0.2158902883529663,0.09285246580839157
1708009824659620400,3.441620361328125,0.03371238708496094,-0.23013539612293243,-0.2205352634191513
1708009824678175700,3.46017578125,0.025045394897460938,0.039689801633358,-0.4115002155303955
1708009824696731000,3.47873095703125,0.06993770599365234,0.069728322327137,-0.1565474420785904
1708009824715286300,3.497286376953125,0.05825233459472656,-0.04849039763212204,0.1506447046995163
1708009824733841700,3.515841552734375,0.04746055603027344,0.18476244807243347,0.027525588870048523
1708009824752397000,3.53439697265625,-0.004923820495605469,0.4939887225627899,-0.22325016558170319
1708009824770952400,3.552952392578125,-0.015409469604492188,0.4067380726337433,-0.06743858754634857
1708009824789507800,3.5715078125,-0.0034532546997070312,0.0500364750623703,0.22199159860610962
1708009824808063200,3.590063232421875,-0.005860328674316406,0.12410246580839157,0.18049655854701996
1708009824826618400,3.608618408203125,0.0058002471923828125,0.18351411819458008,-0.11793768405914307
1708009824845173800,3.627173828125,-0.08487987518310547,0.10689494013786316,-0.12200209498405457
1708009824863729200,3.645729248046875,0.04828643798828125,0.054237060248851776,0.11908837407827377
1708009824882284500,3.664284423828125,0.050968170166015625,-0.0009123384952545166,0.15910226106643677
1708009824900840000,3.68283984375,0.08477783203125,0.24262475967407227,-0.10304801166057587
1708009824919395300,3.701395263671875,0.08896923065185547,0.18934211134910583,-0.15051068365573883
1708009824937950700,3.71995068359375,0.06502342224121094,0.081439308822155,0.13778546452522278
1708009824956506000,3.738506103515625,0.05005359649658203,0.06442742794752121,0.0701521560549736
1708009824975061200,3.757061279296875,0.012939453125,0.2072201371192932,-0.10241512954235077
1708009824993616600,3.77561669921875,0.027298927307128906,0.34722745418548584,-0.07789944112300873
1708009825012172000,3.794172119140625,-0.004431724548339844,0.1145372986793518,0.11666970700025558
1708009825030727400,3.8127275390625,0.020096778869628906,0.0949656143784523,0.21197491884231567
1708009825049282800,3.83128271484375,-0.008334159851074219,0.17582151293754578,-0.07129555940628052
1708009825067838200,3.849838134765625,-0.014013290405273438,0.3238237500190735,-0.14932236075401306
1708009825086393600,3.8683935546875,0.008738517761230469,0.07035119831562042,-0.017329469323158264
1708009825104949000,3.886948974609375,0.038364410400390625,-0.010578632354736328,0.0972936823964119
1708009825123504400,3.90550439453125,0.07308101654052734,0.07319589704275131,-0.04909622669219971
1708009825142059500,3.9240595703125,0.04764842987060547,0.08979974687099457,-0.20981593430042267
1708009825160615000,3.942614990234375,0.047054290771484375,0.058451294898986816,-0.031654372811317444
1708009825179170300,3.96117041015625,0.08116436004638672,0.13450099527835846,0.09300678968429565
1708009825197725700,3.9797255859375,0.027587890625,0.10984440892934799,-0.05072049796581268
1708009825216281000,3.998281005859375,-0.04692554473876953,0.09473001211881638,-0.14087408781051636
1708009825234836500,4.01683642578125,0.04913330078125,0.3138960003852844,-0.009209498763084412
1708009825253392000,4.035391845703125,0.026679039001464844,0.09809339791536331,0.15103980898857117
1708009825271947300,4.053947265625,-0.0071430206298828125,0.0430075079202652,0.07679126411676407
1708009825290502700,4.072502685546875,0.02727031707763672,0.2601698040962219,-0.09868839383125305
1708009825309057800,4.091057861328125,0.03265571594238281,0.21197187900543213,-0.0022281408309936523
1708009825327613200,4.10961328125,0.021585464477539062,-0.05342716723680496,0.08868784457445145
1708009825346168600,4.12816845703125,0.08322906494140625,0.15215599536895752,0.05689692497253418
1708009825364724000,4.146723876953125,0.03864002227783203,0.17330539226531982,-0.12477923929691315
1708009825383279400,4.165279296875,-0.0110321044921875,0.005812644958496094,-0.12927791476249695
1708009825401834800,4.183834716796875,0.04732799530029297,0.11333209276199341,0.010221436619758606
1708009825420390100,4.20239013671875,0.030866622924804688,0.103605717420578,0.02717454731464386
1708009825438945500,4.220945556640625,-0.02957916259765625,-0.05874093621969223,-0.07329937815666199
1708009825457501000,4.2395009765625,0.034465789794921875,0.015394702553749084,-0.08314815163612366
1708009825476056300,4.258056396484375,0.05720710754394531,0.13960802555084229,0.051460377871990204
1708009825494611700,4.27661181640625,0.026081085205078125,-0.07549252361059189,0.058282963931560516
1708009825513167000,4.2951669921875,0.018301963806152344,-0.013014823198318481,-0.006693214178085327
1708009825531722200,4.31372216796875,0.04463768005371094,0.1280442178249359,-0.028403088450431824
1708009825550277600,4.332277587890625,0.011416435241699219,-0.05350956320762634,0.02216440439224243
1708009825568833000,4.3508330078125,0.018898963928222656,-0.07953287661075592,0.038798533380031586
1708009825587388400,4.369388427734375,0.035058021545410156,0.047267280519008636,-0.02643364667892456
1708009825605943800,4.38794384765625,0.03236961364746094,-0.026909194886684418,-0.052529722452163696
1708009825624499200,4.406499267578125,0.047036170959472656,-0.05797886103391647,-0.006900906562805176
1708009825643054600,4.4250546875,0.044640541076660156,0.013849064707756042,-0.007006019353866577
1708009825661610000,4.44360986328125,0.044043540954589844,-0.04118255525827408,-0.08112038671970367
1708009825680165400,4.462165283203125,0.032375335693359375,0.04011014848947525,-0.030358657240867615
1708009825698720800,4.480720703125,0.06409454345703125,0.004342883825302124,0.04342373460531235
1708009825717276200,4.499276123046875,0.018903732299804688,-0.03138182312250137,0.06290952116250992
1708009825735831300,4.517831298828125,0.01830768585205078,0.0020846500992774963,-0.04998701810836792
1708009825754387000,4.536386962890625,0.01801300048828125,0.07619068026542664,-0.07847899198532104
1708009825772942000,4.554942138671875,0.02100372314453125,0.025959372520446777,0.022223636507987976
1708009825791497500,4.57349755859375,0.012017250061035156,-0.0029201507568359375,0.0723591074347496
1708009825810052900,4.592052978515625,0.03535652160644531,0.0661722868680954,0.007400065660476685
1708009825828608300,4.610608154296875,0.022489547729492188,0.05642376095056534,-0.1004420667886734
1708009825847163600,4.62916357421875,0.02069568634033203,0.058663174510002136,-0.050037726759910583
1708009825865719000,4.647718994140625,0.042542457580566406,0.013157889246940613,-0.004460453987121582
1708009825884274400,4.6662744140625,0.030569076538085938,0.03464658558368683,0.007577136158943176
1708009825902829800,4.684829833984375,0.03505516052246094,0.051182255148887634,-0.03824678063392639
1708009825921385200,4.70338525390625,0.02787303924560547,0.05580304563045502,-0.04054635763168335
1708009825939940600,4.721940673828125,0.03565406799316406,0.029464244842529297,0.004948943853378296
1708009825958496000,4.74049609375,0.014103889465332031,0.03183659911155701,-0.0017673224210739136
1708009825977051400,4.759051513671875,0.025472640991210938,0.06530669331550598,-0.024094492197036743
1708009825995606800,4.777606689453125,0.03295326232910156,0.012635700404644012,0.01168784499168396
1708009826014162200,4.796162109375,0.02846050262451172,-0.018276087939739227,0.045262470841407776
1708009826032717600,4.814717529296875,0.042824745178222656,0.01504795253276825,0.009081616997718811
1708009826051272700,4.833272705078125,0.027862548828125,0.04364807903766632,-0.045844659209251404
1708009826069828400,4.851828369140625,0.030260086059570312,0.012570813298225403,-0.033762574195861816
1708009826088383500,4.870383544921875,0.03325176239013672,0.005469433963298798,0.014111325144767761
1708009826106939000,4.88893896484375,0.03803825378417969,0.003200724720954895,0.006766557693481445
1708009826125494300,4.907494384765625,0.022775650024414062,0.012867480516433716,-0.04359917342662811
1708009826144049700,4.926049560546875,0.029661178588867188,0.02958010882139206,-0.04824250936508179
1708009826162605000,4.94460498046875,0.025470733642578125,0.019981734454631805,-0.014115944504737854
1708009826181160400,4.963160400390625,0.02546977996826172,0.005638137459754944,-0.004593983292579651
1708009826199715800,4.9817158203125,0.035045623779296875,0.04616188257932663,-0.02669486403465271
1708009826218271200,5.000271240234375,0.030256271362304688,0.05078144371509552,-0.019269302487373352
1708009826236826600,5.01882666015625,0.018289566040039062,0.033875472843647,0.005238711833953857
1708009826255382000,5.037382080078125,0.035045623779296875,0.019582949578762054,0.009920299053192139
1708009826273937400,5.0559375,0.01349639892578125,0.03628852218389511,-0.02133946120738983
1708009826292492800,5.074492919921875,0.027862548828125,0.036202915012836456,-0.01645481586456299
1708009826311048200,5.093048095703125,0.023073196411132812,0.036189474165439606,0.017028629779815674
1708009826329603600,5.111603515625,0.025465965270996094,0.009974956512451172,0.007346227765083313
1708009826348159000,5.130158935546875,0.035042762756347656,0.041071318089962006,-0.03868022561073303
1708009826366714400,5.14871435546875,0.03264808654785156,0.04820734262466431,-0.02913282811641693
1708009826385269800,5.167269775390625,0.027860641479492188,0.019572995603084564,0.007375016808509827
1708009826403825200,5.1858251953125,0.027858734130859375,-0.004419371485710144,0.007261365652084351
1708009826422380500,5.204380615234375,0.020676612854003906,0.03136901557445526,-0.02855929732322693
1708009826440936000,5.22293603515625,0.00811004638671875,0.04799029231071472,-0.06217069923877716
1708009826459491300,5.2414912109375,0.025467872619628906,0.0048429593443870544,-0.019306480884552002
1708009826478046700,5.260046630859375,0.030554771423339844,0.007307708263397217,0.02421507239341736
1708009826496602000,5.27860205078125,0.03743743896484375,0.016778893768787384,0.0024322718381881714
1708009826515157500,5.297157470703125,0.03025531768798828,0.033543601632118225,-0.03614875674247742
1708009826533712600,5.315712646484375,0.025465965270996094,0.03343769907951355,-0.021104425191879272
1708009826552268300,5.334268310546875,0.0230712890625,0.016615547239780426,0.00039605796337127686
1708009826570823400,5.352823486328125,0.03025341033935547,0.023771822452545166,-0.00924845039844513
1708009826589379000,5.371379150390625,0.018283843994140625,0.037892647087574005,-0.013794004917144775
1708009826607934200,5.389934326171875,0.025465965270996094,0.03067672997713089,-0.008983850479125977
1708009826626489900,5.40848974609375,0.027860641479492188,0.025844112038612366,0.007793992757797241
1708009826645045000,5.427044921875,0.030257225036621094,0.018696285784244537,-0.018763765692710876
1708009826663600400,5.445600341796875,0.029659271240234375,0.032972440123558044,-0.0449875146150589
1708009826682155800,5.46415576171875,0.030257225036621094,0.035349227488040924,-0.008839502930641174
1708009826700711200,5.482711181640625,0.035040855407714844,0.020950786769390106,0.014901489019393921
1708009826719266600,5.5012666015625,0.027855873107910156,0.016232550144195557,-0.00683942437171936
1708009826737822000,5.519822021484375,0.020673751831054688,0.03750525414943695,-0.03338587284088135
1708009826756377300,5.53837744140625,0.030249595642089844,0.04689921438694,-0.028558671474456787
1708009826774932700,5.5569326171875,0.020668983459472656,-0.0009105578064918518,0.005044728517532349
1708009826793488100,5.575488037109375,0.027851104736328125,0.013522110879421234,0.014567941427230835
1708009826812043500,5.59404345703125,0.037428855895996094,0.042135246098041534,-0.029021963477134705
1708009826830599000,5.612598876953125,0.020671844482421875,0.020656511187553406,-0.02833174169063568
1708009826849154300,5.631154296875,0.02306652069091797,0.006426192820072174,-0.0044273436069488525
1708009826867709700,5.649709716796875,0.030249595642089844,0.018280886113643646,0.007560431957244873
1708009826886265000,5.66826513671875,0.03503990173339844,0.022983036935329437,-0.02633678913116455
1708009826904820500,5.686820556640625,0.025463104248046875,0.022998884320259094,-0.03349781036376953
1708009826923375900,5.7053759765625,0.03025054931640625,0.015717104077339172,-0.006646290421485901
1708009826941931300,5.72393115234375,0.02785015106201172,0.01788165420293808,0.00029172003269195557
1708009826960486700,5.742486572265625,0.018273353576660156,0.012998931109905243,-0.014042258262634277
1708009826979042000,5.7610419921875,0.020366668701171875,0.039031632244586945,-0.025941088795661926
1708009826997597400,5.779597412109375,0.025453567504882812,0.022269994020462036,-0.0019897520542144775
1708009827016152800,5.79815283203125,0.02305889129638672,0.022258348762989044,0.014712512493133545
1708009827034708200,5.816708251953125,0.027846336364746094,0.03398790955543518,-0.01156201958656311
1708009827053263600,5.835263671875,0.03233623504638672,0.033866070210933685,-0.025865256786346436
1708009827071819000,5.853819091796875,0.03263378143310547,0.01708710938692093,-0.0019660890102386475
1708009827090374700,5.872374755859375,0.04460620880126953,0.0027436167001724243,0.010029330849647522
1708009827108929800,5.8909296875,0.02275848388671875,0.029114723205566406,-0.021115273237228394
1708009827127485200,5.909485107421875,0.01797199249267578,0.04096373915672302,-0.025828376412391663
1708009827146040600,5.92804052734375,0.0062999725341796875,0.019371293485164642,-0.013874471187591553
1708009827164596000,5.946595947265625,0.008691787719726562,0.03364613652229309,0.002814561128616333
1708009827183151600,5.965151611328125,0.023056983947753906,0.050532422959804535,-0.006754755973815918
1708009827201706800,5.983706787109375,0.027248382568359375,0.01221030205488205,-0.028169646859169006
1708009827220262400,6.002262451171875,0.03682708740234375,0.026578016579151154,-0.01847359538078308
1708009827238817500,6.020817626953125,0.04699993133544922,0.012122534215450287,0.0005901902914047241
1708009827257373200,6.039373291015625,0.037125587463378906,-0.0047277361154556274,-0.021145805716514587
1708009827275928600,6.057928466796875,0.03204059600830078,0.026307441294193268,-0.027802184224128723
1708009827294484000,6.07648388671875,0.027853012084960938,0.03093675523996353,-0.010914623737335205
1708009827313039400,6.095039306640625,0.013487815856933594,-0.0002009570598602295,0.010672956705093384
1708009827331594800,6.1135947265625,0.02067279815673828,0.028470396995544434,-0.0011858940124511719
1708009827350150100,6.132150146484375,0.015284538269042969,0.04038364440202713,-0.017988204956054688
1708009827368705500,6.15070556640625,0.02755260467529297,0.02114792913198471,-0.008447691798210144
1708009827387261000,6.169260986328125,0.03024768829345703,0.013891153037548065,-0.0011945217847824097
1708009827405816300,6.18781640625,0.034435272216796875,0.01865164190530777,-0.010782510042190552
1708009827424371700,6.206371826171875,0.015286445617675781,0.04007897526025772,-0.022562116384506226
1708009827442927000,6.224927001953125,0.01797962188720703,0.030304551124572754,-0.010455459356307983
1708009827461482500,6.243482421875,0.03503704071044922,0.015898846089839935,-0.003332659602165222
1708009827480038000,6.262037841796875,0.024862289428710938,0.03012429177761078,-0.02718617022037506
1708009827498593300,6.28059326171875,0.017681121826171875,0.03254587948322296,-0.03910285234451294
1708009827517148700,6.299148681640625,0.020071983337402344,0.0157366544008255,-0.024860456585884094
1708009827535704000,6.3177041015625,0.023064613342285156,0.01581350713968277,0.02057342231273651
1708009827554259500,6.336259521484375,0.02067279815673828,0.0038936883211135864,0.008688762784004211
1708009827572814800,6.35481494140625,0.024863243103027344,0.03735015541315079,-0.01751445233821869
1708009827591370200,6.373370361328125,0.01768207550048828,0.03484455496072769,-0.02941828966140747
1708009827609925600,6.391925537109375,0.022768020629882812,0.0156567245721817,-0.0031427592039108276
1708009827628481000,6.41048095703125,0.025461196899414062,-0.001103527843952179,0.01608206331729889
1708009827647036400,6.429036376953125,0.03264427185058594,0.034713730216026306,-0.00306721031665802
1708009827665591800,6.447591796875,0.022470474243164062,0.015465036034584045,-0.03162884712219238
1708009827684147200,6.466147216796875,0.02995586395263672,0.044087693095207214,-0.00510840117931366
1708009827702702600,6.48470263671875,0.020676612854003906,0.003286518156528473,0.0020488500595092773
1708009827721258200,6.50325830078125,0.017984390258789062,-0.0014563724398612976,-0.017092794179916382
1708009827739813600,6.521813720703125,0.023067474365234375,0.06036004424095154,-0.01710599660873413
1708009827758369000,6.540369140625,0.025461196899414062,-0.0163748636841774,-0.017082616686820984
1708009827776924400,6.55892431640625,0.027853012084960938,0.017069652676582336,0.009145498275756836
1708009827795479800,6.577479736328125,0.035035133361816406,0.02413926273584366,-0.012648522853851318
1708009827814035200,6.59603515625,0.0326385498046875,0.019048772752285004,-0.019626334309577942
1708009827832590600,6.614590576171875,0.011091232299804688,0.02610933780670166,-0.009969532489776611
1708009827851146000,6.63314599609375,0.032634735107421875,0.03322888910770416,0.0018016397953033447
1708009827869701400,6.651701416015625,0.01587677001953125,0.0020764917135238647,-0.01494838297367096
1708009827888256800,6.6702568359375,0.030241966247558594,0.02845826745033264,-0.017316773533821106
1708009827906812200,6.688812255859375,0.030242919921875,0.03562452644109726,0.004317939281463623
1708009827925367600,6.707367431640625,0.030244827270507812,-0.005046367645263672,-0.005179360508918762
1708009827943923000,6.7259228515625,0.02276325225830078,0.006869837641716003,-0.014652729034423828
1708009827962478300,6.744478271484375,0.027252197265625,0.03784903138875961,-0.031443461775779724
1708009827981033700,6.76303369140625,0.024857521057128906,0.013885140419006348,-0.01942603290081024
1708009827999589400,6.78158935546875,0.0278472900390625,0.0018400326371192932,0.018685922026634216
1708009828018144800,6.800144775390625,0.03263664245605469,0.0066223591566085815,0.014023080468177795
1708009828036700200,6.8187001953125,0.027547836303710938,0.032760053873062134,-0.01470327377319336
1708009828055255600,6.837255615234375,0.017673492431640625,0.020573921501636505,-0.04571804404258728
1708009828073811000,6.85581103515625,0.02485942840576172,0.027782917022705078,-0.0167190283536911
1708009828092366300,6.874366455078125,0.03742694854736328,0.018082797527313232,0.004745304584503174
1708009828110921700,6.892921630859375,0.02066802978515625,0.010931476950645447,0.014326751232147217
1708009828129477000,6.91147705078125,0.024857521057128906,0.03479430079460144,-0.009619832038879395
1708009828148032500,6.930032470703125,0.02246379852294922,0.01796581596136093,-0.0429927259683609
1708009828166588000,6.948587890625,0.029645919799804688,0.02029920369386673,-0.023930028080940247
1708009828185143300,6.967143310546875,0.02545452117919922,0.015360765159130096,0.009608030319213867
1708009828203698700,6.98569873046875,0.02545452117919922,0.02243068814277649,0.011986851692199707
1708009828222254300,7.00425439453125,0.024854660034179688,0.012774839997291565,-0.0167207270860672
1708009828240809700,7.022809814453125,0.024855613708496094,0.0294635072350502,-0.0262632817029953
1708009828259365000,7.041365234375,0.024855613708496094,0.02705153077840805,-0.01185503602027893
1708009828277920500,7.05992041015625,0.024855613708496094,0.00792643427848816,-0.011852726340293884
1708009828296476000,7.078475830078125,0.035033226013183594,0.02719596028327942,0.005033478140830994
1708009828315031300,7.09703125,0.03443336486816406,0.024801261723041534,-0.009398847818374634
1708009828333586700,7.115586669921875,0.03443431854248047,0.010448239743709564,-0.02134363353252411
1708009828352142000,7.13414208984375,0.02725505828857422,0.012806706130504608,-0.0164574533700943
1708009828370697500,7.152697509765625,0.022764205932617188,0.015039950609207153,-0.009233996272087097
1708009828389252900,7.1712529296875,0.03024578094482422,0.017397165298461914,0.0027180463075637817
1708009828407808500,7.18980859375,0.020071983337402344,0.022134803235530853,-0.023472219705581665
1708009828426364000,7.208364013671875,0.022466659545898438,0.029252521693706512,-0.018637508153915405
1708009828444919300,7.226919189453125,0.02725696563720703,0.02907806634902954,-0.0185403972864151
1708009828463474700,7.245474609375,0.027553558349609375,0.01701296865940094,-0.0017936229705810547
1708009828482030000,7.264030029296875,0.02785205841064453,0.0002624392509460449,0.007688954472541809
1708009828500585500,7.28258544921875,0.02486133575439453,0.03369724750518799,-0.013695359230041504
1708009828519140900,7.301140869140625,0.017683029174804688,0.02409415692090988,-0.020686373114585876
1708009828537696300,7.3196962890625,0.017683982849121094,0.005082026124000549,-0.003865748643875122
1708009828556251600,7.338251708984375,0.022474288940429688,0.017126671969890594,-0.0013883262872695923
1708009828574807000,7.35680712890625,0.03205299377441406,0.019524723291397095,-0.006002306938171387
1708009828593362400,7.375362548828125,0.029662132263183594,0.007486842572689056,-0.02015906572341919
1708009828611918000,7.39391796875,0.02487468719482422,0.021746575832366943,-0.003326013684272766
1708009828630473500,7.412473388671875,0.029662132263183594,0.016946278512477875,0.001410454511642456
1708009828649028900,7.43102880859375,0.02727031707763672,0.019312016665935516,-0.0031732022762298584
1708009828667584300,7.449584228515625,0.024875640869140625,0.03338375687599182,-0.010275408625602722
1708009828686139600,7.4681396484375,0.02487659454345703,-0.00032257288694381714,-0.014962822198867798
1708009828704695000,7.486695068359375,0.03206062316894531,0.01647964119911194,-0.005314260721206665
1708009828723250400,7.50525048828125,0.027566909790039062,0.03776494413614273,0.011340498924255371
1708009828741805800,7.523805908203125,0.029662132263183594,-0.0005442127585411072,0.0017567574977874756
1708009828760361500,7.542361572265625,0.03205585479736328,0.02110058069229126,-0.010271638631820679
1708009828778916900,7.560916748046875,0.02487468719482422,0.04002515971660614,-0.02210398018360138
1708009828797472300,7.57947216796875,0.02247905731201172,0.01846390962600708,-0.01017792522907257
1708009828816027600,7.598027587890625,0.036841392517089844,-0.005577690899372101,-0.0007518529891967773
1708009828834583000,7.6165830078125,0.03684043884277344,0.02305281162261963,0.008821293711662292
1708009828853138400,7.635138427734375,0.03205299377441406,0.02780335396528244,-0.0031107813119888306
1708009828871693800,7.65369384765625,0.02008056640625,0.01096612960100174,-0.022330328822135925
1708009828890249200,7.672249267578125,0.029656410217285156,0.02527010440826416,-0.005587786436080933
1708009828908804900,7.690804931640625,0.027265548706054688,0.013307064771652222,-0.010264217853546143
1708009828927360300,7.7093603515625,0.022475242614746094,0.008585095405578613,-0.010337010025978088
1708009828945915600,7.72791552734375,0.032054901123046875,0.015680305659770966,-0.007723331451416016
1708009828964471000,7.746470947265625,0.017690658569335938,0.013190306723117828,-0.014860719442367554
1708009828983026400,7.7650263671875,0.032054901123046875,0.008447535336017609,-0.0005189627408981323
1708009829001581800,7.783581787109375,0.02966022491455078,0.015384308993816376,-0.01961052417755127
1708009829020137200,7.80213720703125,0.03205680847167969,0.02963785082101822,-0.0074298083782196045
1708009829038692600,7.820692626953125,0.024875640869140625,0.010657735168933868,-0.005059823393821716
1708009829057248300,7.839248291015625,0.03445148468017578,0.01785355806350708,0.0021298974752426147
1708009829075803600,7.8578037109375,0.0320587158203125,0.012956179678440094,-0.009703069925308228
1708009829094359000,7.876359130859375,0.027273178100585938,0.024864844977855682,-0.0143728107213974
1708009829112914400,7.89491455078125,0.017698287963867188,0.015234172344207764,-0.0023099780082702637
1708009829131469800,7.9134697265625,0.027276039123535156,0.010195165872573853,0.002663925290107727
1708009829150025200,7.932025146484375,0.03685188293457031,0.010205939412117004,-0.004500404000282288
1708009829168580600,7.95058056640625,0.020093917846679688,0.026789963245391846,-0.011568278074264526
1708009829187136300,7.96913623046875,0.029672622680664062,0.02188393473625183,-0.016209378838539124
1708009829205691600,7.987691650390625,0.015308380126953125,0.01470455527305603,-0.006639838218688965
1708009829224247000,8.0062470703125,0.029674530029296875,0.01240566372871399,-0.004152700304985046
1708009829242802400,8.024802490234375,0.024885177612304688,0.03153681755065918,-0.004215791821479797
1708009829261357800,8.04335791015625,0.03445911407470703,0.007618449628353119,-0.011483684182167053
1708009829279913200,8.061913330078125,0.022491455078125,0.007684715092182159,-0.0018042027950286865
1708009829298468900,8.08046875,0.012917518615722656,0.019504189491271973,-0.004048526287078857
1708009829317024300,8.099024169921876,0.029672622680664062,0.005164913833141327,-0.011383533477783203
1708009829335579600,8.11757958984375,0.020099639892578125,0.00998251885175705,-0.006424769759178162
1708009829354135000,8.136135009765624,0.0296783447265625,0.028962619602680206,-0.011035680770874023
1708009829372690400,8.1546904296875,0.03685951232910156,0.01221425086259842,-0.008693933486938477
1708009829391245800,8.173245849609375,0.02249622344970703,0.012232176959514618,-0.0014508217573165894
1708009829409801500,8.191801513671875,0.027284622192382812,0.01708509773015976,-0.00389668345451355
1708009829428356900,8.21035693359375,0.02249622344970703,0.007481187582015991,-0.011027246713638306
1708009829446912300,8.228912353515625,0.024890899658203125,0.009965360164642334,-0.008676379919052124
1708009829465467600,8.247467529296875,0.024888992309570312,0.021824359893798828,-0.0039009451866149902
1708009829484023000,8.26602294921875,0.0296783447265625,0.016919143497943878,0.0009675920009613037
1708009829502578400,8.284578369140625,0.02010059356689453,0.004803799092769623,0.00816693902015686
1708009829521134000,8.303134033203126,0.027284622192382812,0.014305800199508667,-0.001330554485321045
1708009829539689500,8.321689453125,0.032073974609375,0.03091895580291748,-0.02272692322731018
1708009829558244900,8.340244873046874,0.020105361938476562,-0.00022226572036743164,-0.010679647326469421
1708009829576800300,8.35880029296875,0.022497177124023438,-0.007433243095874786,0.0012725740671157837
1708009829595355600,8.377355712890624,0.032073974609375,0.02602235972881317,0.008448556065559387
1708009829613911000,8.3959111328125,0.027289390563964844,0.004516497254371643,-0.01054924726486206
1708009829632466700,8.414466796875,0.024895668029785156,0.021236777305603027,-0.02483941614627838
1708009829651022000,8.43302197265625,0.02968120574951172,0.02815420925617218,0.0014030486345291138
1708009829669577500,8.451577392578125,0.032073020935058594,-0.0029473677277565002,0.006107300519943237
1708009829688132900,8.4701328125,0.024888038635253906,0.013730175793170929,0.0011204630136489868
1708009829706688300,8.488688232421875,0.024888992309570312,0.01597852259874344,-0.010685577988624573
1708009829725243600,8.50724365234375,0.024888992309570312,0.03018302470445633,-0.005887225270271301
1708009829743799000,8.525799072265626,0.027280807495117188,0.00861288607120514,0.0011575520038604736
1708009829762354700,8.544354736328126,0.02727794647216797,0.0085844025015831,0.010574012994766235
1708009829780910000,8.56291015625,0.03445720672607422,0.022789016366004944,0.0009603947401046753
1708009829799465500,8.581465576171874,0.020093917846679688,0.013179518282413483,-0.008555188775062561
1708009829818020900,8.600020751953124,0.022487640380859375,0.01075659692287445,-0.010935366153717041
1708009829836576300,8.618576171875,0.02967071533203125,0.015436805784702301,-0.010873943567276001
1708009829855132000,8.6371318359375,0.029672622680664062,-0.0013242140412330627,-0.022692441940307617
1708009829873687300,8.655687255859375,0.027276992797851562,0.017620980739593506,-0.0059432536363601685
1708009829892242700,8.67424267578125,0.027276992797851562,0.01751009374856949,-0.008320912718772888
1708009829910798000,8.692798095703125,0.03446006774902344,0.007857240736484528,-0.0034382492303848267
1708009829929353500,8.711353515625,0.024883270263671875,0.012547627091407776,-0.005831465125083923
1708009829947909000,8.7299091796875,0.02727794647216797,0.02925390750169754,-0.005829468369483948
1708009829966464500,8.748464599609376,0.024881362915039062,0.012584872543811798,0.008395805954933167
1708009829985020000,8.76702001953125,0.024881362915039062,0.017264895141124725,-0.001103922724723816
1708009830003575300,8.7855751953125,0.029666900634765625,0.019667334854602814,0.0010620057582855225
1708009830022130700,8.804130615234374,0.022481918334960938,0.002793237566947937,-0.006171554327011108
1708009830040686000,8.82268603515625,0.036849021911621094,0.024286426603794098,0.005923748016357422
1708009830059241700,8.84124169921875,0.03445148468017578,0.024157315492630005,-0.006176471710205078
1708009830077797000,8.859797119140625,0.02966594696044922,0.014608405530452728,-0.013230323791503906
1708009830096352500,8.8783525390625,0.0368499755859375,0.02412007749080658,-0.02030952274799347
1708009830114908000,8.896907958984375,0.027274131774902344,0.01454952359199524,-0.01551876962184906
1708009830133466600,8.915466552734374,0.032062530517578125,-0.009256362915039062,0.0012817531824111938
1708009830152022300,8.934022216796874,0.02009105682373047,-0.006856486201286316,0.003597468137741089
1708009830170577700,8.95257763671875,0.020090103149414062,0.009839370846748352,-0.010762616991996765
1708009830189133000,8.971133056640625,0.02487945556640625,0.014536261558532715,-0.020267531275749207
1708009830207688400,8.9896884765625,0.036850929260253906,0.0049994587898254395,-0.0011241286993026733
1708009830226243800,9.008243896484375,0.053607940673828125,0.02164836972951889,0.006025984883308411
1708009830244799500,9.026799560546875,0.04163551330566406,0.0001389533281326294,0.010703325271606445
1708009830263355000,9.04535498046875,0.02756977081298828,0.007316134870052338,0.010724961757659912
1708009830281910300,9.06391015625,0.02487659454345703,0.016732029616832733,-0.0036249160766601562
1708009830300465700,9.082465576171876,0.020087242126464844,0.04056193679571152,-0.013205930590629578
1708009830319021000,9.10102099609375,0.020090103149414062,0.014231137931346893,-0.013052970170974731
1708009830337576700,9.11957666015625,0.02966785430908203,0.009254194796085358,0.008617192506790161
1708009830356132000,9.138132080078124,0.02248668670654297,0.011491313576698303,-0.0056145042181015015
1708009830374687500,9.1566875,0.03446006774902344,0.00913829356431961,-0.017392516136169434
1708009830393243000,9.175242919921875,0.03925132751464844,0.02587752789258957,-0.03163929283618927
1708009830411798300,9.19379833984375,0.029676437377929688,0.021012093871831894,-0.01955007016658783
1708009830430354000,9.21235400390625,0.036858558654785156,-0.01241862028837204,-0.007582530379295349
1708009830448909300,9.230909423828125,0.029674530029296875,0.013894043862819672,-0.0004871636629104614
1708009830467464700,9.249464599609375,0.02488994598388672,0.0353047177195549,-0.007410183548927307
1708009830486020000,9.26802001953125,0.029680252075195312,0.020761165767908096,-0.014419972896575928
1708009830504575500,9.286575439453125,0.02728557586669922,0.01593077927827835,-0.000004902482032775879
1708009830523131100,9.305131103515626,0.04165077209472656,-0.0007952190935611725,-0.0024389326572418213
1708009830541686500,9.3236865234375,0.032073974609375,-0.0009555630385875702,0.000021323561668395996
1708009830560242000,9.342241943359374,0.03446769714355469,0.015753615647554398,0.00005580484867095947
1708009830578797300,9.36079736328125,0.03207588195800781,0.015690211206674576,-0.0022090673446655273
1708009830597352700,9.379352783203124,0.024893760681152344,-0.0011431723833084106,0.0049767643213272095
1708009830615908400,9.397908447265625,0.020105361938476562,0.018027905374765396,-0.0021680444478988647
1708009830634463700,9.416463623046875,0.02728748321533203,0.015523292124271393,-0.014183729887008667
1708009830653019100,9.43501904296875,0.032074928283691406,0.010763954371213913,-0.009381845593452454
1708009830671574500,9.453574462890625,0.034468650817871094,-0.0011951923370361328,0.0025546252727508545
1708009830690130000,9.4721298828125,0.051227569580078125,0.017870929092168808,-0.00941149890422821
1708009830708685600,9.490685546875,0.017709732055664062,0.013091810047626495,-0.01661798357963562
1708009830727241000,9.509240966796876,0.02010631561279297,0.0012366250157356262,-0.014094874262809753
1708009830745796400,9.52779638671875,0.022497177124023438,0.020344968885183334,-0.007069379091262817
1708009830764351700,9.546351806640626,0.02010059356689453,0.005935203284025192,-0.004793286323547363
1708009830782907400,9.564907470703124,0.03207111358642578,0.0011575780808925629,-0.009629711508750916
1708009830801462800,9.583462890625,0.03446483612060547,0.010755471885204315,-0.0024140626192092896
1708009830820018200,9.60201806640625,0.03925323486328125,0.008223582059144974,-0.004822865128517151
1708009830838573600,9.620573486328125,0.032073020935058594,0.015316173434257507,-0.016609221696853638
1708009830857129000,9.63912890625,0.029677391052246094,0.012822147458791733,-0.011904299259185791
1708009830875684600,9.6576845703125,0.03446769714355469,0.02965984120965004,0.004976615309715271
1708009830894240000,9.676239990234375,0.02728557586669922,0.010469887405633926,0.014531135559082031
1708009830912795400,9.69479541015625,0.029677391052246094,0.003134332597255707,0.00012812018394470215
1708009830931350800,9.713350830078125,0.029682159423828125,0.01979825273156166,-0.013949304819107056
1708009830949906200,9.73190625,0.027289390563964844,0.01258312538266182,-0.013797581195831299
1708009830968461800,9.7504619140625,0.024898529052734375,0.0007040947675704956,0.0007137954235076904
1708009830987017200,9.769017333984374,0.03208160400390625,0.003116115927696228,0.015103951096534729
1708009831005572600,9.787572509765624,0.029687881469726562,0.0031096450984477997,0.007948920130729675
1708009831024128000,9.8061279296875,0.027296066284179688,0.01725197210907936,-0.008662879467010498
1708009831042683400,9.824683349609375,0.020112991333007812,0.017201241105794907,-0.02775101363658905
1708009831061239000,9.843239013671875,0.02969074249267578,0.02432650327682495,-0.003738492727279663
1708009831079794400,9.86179443359375,0.03447723388671875,0.007487408816814423,0.020127028226852417
1708009831098349800,9.880349853515625,0.034478187561035156,0.01941099762916565,0.013028785586357117
1708009831116905200,9.8989052734375,0.020116806030273438,0.0050319284200668335,-0.017915770411491394
1708009831135460900,9.9174609375,0.015328407287597656,0.024111658334732056,-0.020323336124420166
1708009831154016300,9.936016357421876,0.0272979736328125,0.004822954535484314,0.0036680400371551514
1708009831172571600,9.954571533203126,0.029692649841308594,0.004919040948152542,0.01800289750099182
1708009831191127000,9.973126953125,0.029692649841308594,0.0048376694321632385,0.0012973248958587646
1708009831209682400,9.991682373046874,0.024906158447265625,0.0167711079120636,-0.0201570987701416
1708009831228238000,10.010238037109374,0.02490711212158203,0.009559139609336853,-0.02492770552635193
1708009831246793500,10.02879345703125,0.034481048583984375,0.0024309754371643066,-0.0034728944301605225
1708009831265348900,10.047348876953125,0.02969074249267578,-0.002280961722135544,0.008283838629722595
1708009831283904300,10.065904296875,0.032080650329589844,0.009604785591363907,0.0009619593620300293
1708009831302459600,10.084459716796875,0.02968883514404297,0.014403373003005981,-0.003733322024345398
1708009831321015300,10.103015380859375,0.029689788818359375,0.007247433066368103,-0.006106778979301453
1708009831339570700,10.12157080078125,0.027296066284179688,0.019222833216190338,-0.0013297349214553833
1708009831358126000,10.1401259765625,0.029687881469726562,0.011948738247156143,0.0010108351707458496
1708009831376681500,10.158681396484376,0.020112037658691406,-0.002535879611968994,-0.003679618239402771
1708009831395237000,10.177237060546876,0.02490520477294922,0.01652872934937477,-0.0010042786598205566
1708009831413792500,10.19579248046875,0.022510528564453125,0.009277153760194778,-0.001038476824760437
1708009831432348000,10.214347900390624,0.024903297424316406,0.011592544615268707,-0.01061740517616272
1708009831450903300,10.2329033203125,0.03448009490966797,0.013902828097343445,-0.015330344438552856
1708009831469459000,10.251458984375,0.029695510864257812,0.018804162740707397,-0.0031978189945220947
1708009831488014300,10.270014404296875,0.03688240051269531,0.00917612761259079,-0.0005659759044647217
1708009831506569700,10.28856982421875,0.03688240051269531,0.011641919612884521,0.00185316801071167
1708009831525125000,10.307125,0.027304649353027344,0.002150546759366989,-0.00783933699131012
1708009831543680800,10.3256806640625,0.029697418212890625,0.016314636915922165,-0.0031025707721710205
1708009831562236200,10.344236083984375,0.027304649353027344,0.013947024941444397,0.008931517601013184
1708009831580791600,10.36279150390625,0.024909019470214844,0.009122256189584732,0.001702144742012024
1708009831599347000,10.381346923828126,0.036881446838378906,0.01629875972867012,-0.007735893130302429
1708009831617902600,10.399902587890624,0.02969837188720703,0.013769067823886871,-0.0053986310958862305
1708009831636458000,10.4184580078125,0.03448677062988281,0.004133496433496475,-0.012454986572265625
1708009831655013400,10.437013427734374,0.03209209442138672,0.004194252192974091,0.004178330302238464
1708009831673568800,10.45556884765625,0.015333175659179688,0.00656433030962944,-0.0030133575201034546
1708009831692124400,10.47412451171875,0.02251434326171875,0.006561845541000366,0.013735741376876831
1708009831710679800,10.4926796875,0.024906158447265625,0.0063562095165252686,0.0040659308433532715
1708009831729235200,10.511235107421875,0.017726898193359375,0.011071961373090744,-0.022112205624580383
1708009831747790600,10.52979052734375,0.02730274200439453,0.027701135724782944,-0.019605010747909546
1708009831766346000,10.548345947265625,0.034483909606933594,0.006167646497488022,0.009057760238647461
1708009831784901600,10.566901611328126,0.03448295593261719,0.0014451481401920319,0.02573445439338684
1708009831803457000,10.58545703125,0.03448200225830078,0.011004090309143066,-0.003064289689064026
1708009831822012400,10.604012451171876,0.026702880859375,0.020508546382188797,-0.02691599726676941
1708009831840567800,10.62256787109375,0.02730083465576172,0.010937649756669998,-0.017305031418800354
1708009831859123500,10.64112353515625,0.029694557189941406,0.003641698509454727,0.0018091201782226562
1708009831877678800,10.659678955078125,0.029691696166992188,0.0060968659818172455,0.008784249424934387
1708009831896234200,10.678234130859375,0.022507667541503906,0.006037827581167221,-0.00567743182182312
1708009831914789600,10.69678955078125,0.024903297424316406,0.018064171075820923,-0.01515170931816101
1708009831933345300,10.71534521484375,0.032088279724121094,0.017958838492631912,-0.005377233028411865
1708009831951900700,10.733900634765625,0.027298927307128906,0.0035346150398254395,-0.0030588507652282715
1708009831970456000,10.7524560546875,0.029692649841308594,0.013078227639198303,-0.005487993359565735
1708009831989011500,10.771011474609375,0.02730083465576172,0.012977201491594315,-0.005294129252433777
1708009832007567000,10.789567138671876,0.02490234375,0.000865105539560318,0.006470739841461182
1708009832026122500,10.80812255859375,0.02011394500732422,-0.0015706494450569153,0.01370258629322052
1708009832044678000,10.826677978515624,0.03208446502685547,0.017648939043283463,0.0017367154359817505
1708009832063233300,10.8452333984375,0.02011585235595703,0.005834735929965973,-0.015024006366729736
1708009832081789000,10.863788818359374,0.03687477111816406,0.017869576811790466,0.0017029494047164917
1708009832100344300,10.88234423828125,0.032085418701171875,0.003598630428314209,0.011190250515937805
1708009832118899700,10.900899658203125,0.034478187561035156,0.022730372846126556,0.0015493780374526978
1708009832137455400,10.919455322265625,0.027296066284179688,0.012987211346626282,-0.019882038235664368
1708009832156010800,10.9380107421875,0.026996612548828125,-0.0014423727989196777,-0.017529934644699097
1708009832174566100,10.956566162109375,0.017719268798828125,-0.006334632635116577,0.0016413778066635132
1708009832193121500,10.97512158203125,0.02250385284423828,0.01755533367395401,-0.0009096264839172363
1708009832211677200,10.99367724609375,0.024900436401367188,0.005602825433015823,-0.015177562832832336
1708009832230232600,11.012232666015626,0.022504806518554688,0.019917462021112442,-0.01754598319530487
1708009832248788000,11.0307880859375,0.027294158935546875,-0.004109859466552734,-0.0007745921611785889
1708009832267343400,11.04934326171875,0.03447532653808594,0.007857460528612137,0.01118767261505127
1708009832285898800,11.067898681640624,0.03447437286376953,0.0126112662255764,-0.0008531510829925537
1708009832304454400,11.086454345703125,0.029686927795410156,0.0030836202204227448,0.0039489418268203735
1708009832323009800,11.105009765625,0.024898529052734375,0.012701906263828278,-0.0032908618450164795
1708009832341565200,11.123565185546875,0.022500991821289062,0.02684153988957405,-0.0009845495223999023
1708009832360120600,11.14212060546875,0.01771259307861328,-0.011567246168851852,-0.005741938948631287
1708009832378676200,11.16067626953125,0.020110130310058594,0.0003737322986125946,-0.0031667202711105347
1708009832397231600,11.179231689453125,0.03447437286376953,0.014745160937309265,0.004010587930679321
1708009832415787000,11.197787109375,0.029685020446777344,-0.002069856971502304,-0.005602732300758362
1708009832434342700,11.2163427734375,0.024898529052734375,0.012294802814722061,-0.012721717357635498
1708009832452898000,11.23489794921875,0.029687881469726562,0.021925490349531174,-0.010252326726913452
1708009832471453400,11.253453369140624,0.02489948272705078,0.005138106644153595,-0.003090590238571167
1708009832490009000,11.272009033203124,0.0225067138671875,-0.009031284600496292,0.001710161566734314
1708009832508564500,11.290564453125,0.02729320526123047,0.005209188908338547,-0.0030652880668640137
1708009832527120000,11.309119873046875,0.027294158935546875,0.007738851010799408,-0.010327309370040894
1708009832545675300,11.32767529296875,0.02729034423828125,0.014709137380123138,-0.0008391439914703369
1708009832564231000,11.34623095703125,0.03207588195800781,0.004990484565496445,0.013405948877334595
1708009832582786300,11.364786376953125,0.027286529541015625,0.00731523334980011,0.008839577436447144
1708009832601341700,11.383341796875,0.024890899658203125,0.026335906237363815,-0.0010283440351486206
1708009832619897000,11.40189697265625,0.020101547241210938,0.004778798669576645,0.0012823641300201416
1708009832638452700,11.42045263671875,0.02728557586669922,0.00956474244594574,0.0013364553451538086
1708009832657008000,11.439008056640626,0.02488994598388672,0.01417635753750801,-0.005822569131851196
1708009832675563500,11.4575634765625,0.02010059356689453,0.007071848958730698,-0.00830891728401184
1708009832694119200,11.476119140625,0.03207111358642578,0.004716869443655014,-0.010703161358833313
1708009832712674600,11.494674560546875,0.027283668518066406,0.0166008397936821,-0.022692888975143433
1708009832731230000,11.51322998046875,0.036856651306152344,0.006999146193265915,-0.0036185234785079956
1708009832749785600,11.53178564453125,0.03685760498046875,0.002211872488260269,0.0011803656816482544
1708009832768341000,11.550341064453125,0.046433448791503906,0.004603110253810883,0.003510698676109314
1708009832786896400,11.568896484375,0.029672622680664062,0.011640496551990509,0.001063033938407898
1708009832805451800,11.58745166015625,0.02488422393798828,0.006962224841117859,0.005797624588012695
1708009832824007400,11.60600732421875,0.020094871520996094,0.014178626239299774,-0.010973066091537476
1708009832842562800,11.624562744140626,0.02727508544921875,0.009259063750505447,-0.00148676335811615
1708009832861118200,11.6431181640625,0.03445625305175781,0.004344478249549866,-0.0015395581722259521
1708009832879673900,11.661673828125,0.034454345703125,0.0019497312605381012,0.010355189442634583
1708009832898229200,11.680229248046874,0.02966594696044922,0.013874523341655731,-0.01361130177974701
1708009832916784600,11.69878466796875,0.034454345703125,0.013901356607675552,-0.015986010432243347
1708009832935340300,11.71734033203125,0.034453392028808594,0.011509757488965988,-0.006473436951637268
1708009832953895700,11.735895751953125,0.036846160888671875,0.004243578761816025,0.007830202579498291
1708009832972451000,11.754451171875,0.0320587158203125,0.0018762201070785522,-0.006457701325416565
1708009832991006500,11.77300634765625,0.022481918334960938,0.013654988259077072,-0.004020199179649353
1708009833009562000,11.79156201171875,0.02247905731201172,0.013561133295297623,-0.016151443123817444
1708009833028117500,11.810117431640625,0.027268409729003906,-0.00786418467760086,-0.016149476170539856
1708009833046673000,11.8286728515625,0.0272674560546875,0.008881155401468277,-0.0017749965190887451
1708009833065228500,11.847228515625,0.039238929748535156,0.025641128420829773,0.0005890429019927979
1708009833083784000,11.865783935546874,0.027265548706054688,0.01838241145014763,0.005191802978515625
1708009833102339300,11.88433935546875,0.020081520080566406,-0.007902298122644424,0.005131736397743225
1708009833120895000,11.90289501953125,0.017683029174804688,0.006385743618011475,-0.0022495388984680176
1708009833139450400,11.921450439453125,0.017683029174804688,0.013586301356554031,-0.011824995279312134
1708009833158005800,11.940005859375,0.02725982666015625,-0.008098714053630829,-0.004614323377609253
1708009833176561200,11.95856103515625,0.027257919311523438,0.008684676140546799,0.016855016350746155
1708009833195116800,11.97711669921875,0.03683280944824219,0.008690454065799713,-0.0047978609800338745
1708009833213672200,11.995672119140625,0.03383827209472656,0.01827428489923477,-0.0192585289478302
1708009833232227600,12.0142275390625,0.041022300720214844,-0.0055596232414245605,-0.016849026083946228
1708009833250783200,12.032783203125,0.03683280944824219,0.013511177152395248,0.009491801261901855
1708009833269338600,12.051338623046876,0.027253150939941406,-0.005639862269163132,0.006928443908691406
1708009833287894000,12.06989404296875,0.017675399780273438,-0.005493849515914917,-0.005156099796295166
1708009833306449700,12.08844970703125,0.017375946044921875,0.025637008249759674,-0.021904245018959045
1708009833325005000,12.107005126953124,0.022464752197265625,0.01371222734451294,-0.007441684603691101
1708009833343560400,12.125560546875,0.024858474731445312,-0.007771119475364685,0.011616051197052002
1708009833362116000,12.1441162109375,0.029644012451171875,0.008994445204734802,0.011470749974250793
1708009833380671500,12.16267138671875,0.03443145751953125,0.020824898034334183,-0.014843985438346863
1708009833399227000,12.181226806640625,0.02724933624267578,0.003989171236753464,-0.012459278106689453
1708009833417782500,12.199782470703125,0.024854660034179688,-0.0009693838655948639,-0.0052664875984191895
1708009833436338000,12.218337890625,0.024852752685546875,0.01573977991938591,-0.000545203685760498
1708009833454893300,12.236893310546876,0.022455215454101562,0.015641994774341583,-0.005432263016700745
1708009833473448700,12.25544873046875,0.024852752685546875,0.008458498865365982,-0.010044246912002563
1708009833492004400,12.27400439453125,0.03203582763671875,0.013081330806016922,-0.005193933844566345
1708009833510559700,12.292559814453124,0.02724933624267578,0.0035526305437088013,-0.009949013590812683
1708009833529115100,12.311115234375,0.03891944885253906,0.015478923916816711,-0.0075822919607162476
1708009833547670800,12.3296708984375,0.03682231903076172,0.01071283221244812,0.004265934228897095
1708009833566226200,12.34822607421875,0.032034873962402344,0.0036744214594364166,0.004291802644729614
1708009833584781600,12.366781494140625,0.029341697692871094,0.006109930574893951,-0.010103866457939148
1708009833603337200,12.385337158203125,0.02724742889404297,0.013312067836523056,-0.0052580684423446655
1708009833621892600,12.403892578125,0.022461891174316406,-0.010553821921348572,-0.007581427693367004
1708009833640448000,12.422447998046875,0.02724933624267578,0.0013650096952915192,-0.00040625035762786865
1708009833659003600,12.441003662109376,0.010489463806152344,0.00856706127524376,-0.007334023714065552
1708009833677559000,12.45955908203125,0.026947975158691406,0.013374637812376022,-0.005288541316986084
1708009833696114400,12.478114501953126,0.029644012451171875,-0.0033802948892116547,-0.007512018084526062
1708009833714670000,12.496670166015624,0.03922462463378906,0.015632465481758118,-0.00009784102439880371
1708009833733225500,12.5152255859375,0.024855613708496094,0.0036875568330287933,-0.0003240853548049927
1708009833751780900,12.53378076171875,0.02246379852294922,-0.00826868787407875,-0.012206003069877625
1708009833770336500,12.55233642578125,0.022462844848632812,0.003707069903612137,-0.012237489223480225
1708009833788892000,12.570891845703125,0.022464752197265625,0.02278880402445793,0.004605501890182495
1708009833807447300,12.589447265625,0.024858474731445312,0.0012192204594612122,-0.00014664232730865479
1708009833826003000,12.6080029296875,0.027253150939941406,0.00595831498503685,-0.004869863390922546
1708009833844558300,12.626558349609375,0.02485942840576172,0.017910979688167572,-0.004846334457397461
1708009833863113700,12.64511376953125,0.032044410705566406,0.01319834217429161,-0.014344781637191772
1708009833881669000,12.663669189453126,0.02965068817138672,0.008333679288625717,-0.014308974146842957
1708009833900224800,12.682224853515624,0.03683280944824219,0.008362911641597748,0.002513498067855835
1708009833918780200,12.7007802734375,0.024862289428710938,-0.008376553654670715,0.007260307669639587
1708009833937335800,12.719335693359374,0.02725696563720703,0.006076212972402573,0.004880860447883606
1708009833955891200,12.73789111328125,0.029052734375,0.00840095803141594,-0.011859714984893799
1708009833974446600,12.756446533203125,0.02426433563232422,0.039415307343006134,-0.016405567526817322
1708009833993002200,12.775002197265625,0.02725696563720703,0.008297920227050781,-0.0022202283143997192
1708009834011557600,12.7935576171875,0.034438133239746094,0.0011330023407936096,0.024032756686210632
1708009834030113000,12.812113037109375,0.036834716796875,-0.010822825133800507,0.0026015043258666992
1708009834048668700,12.830668701171875,0.029054641723632812,0.022588524967432022,-0.0308343768119812
1708009834067224000,12.84922412109375,0.03384590148925781,0.00109761580824852,-0.02588735520839691
1708009834085779500,12.867779541015626,0.02725982666015625,0.003365069627761841,0.0027934610843658447
1708009834104335000,12.886335205078124,0.03414154052734375,0.0032932311296463013,0.0027780383825302124
1708009834122890500,12.904890380859374,0.026659011840820312,0.0008075684309005737,-0.011689215898513794
1708009834141446000,12.92344580078125,0.029054641723632812,0.01263146847486496,-0.021091580390930176
1708009834160001500,12.94200146484375,0.024565696716308594,0.01734459400177002,-0.0016785860061645508
1708009834178557000,12.960556884765625,0.02965068817138672,-0.004187189042568207,0.007454276084899902
1708009834197112300,12.9791123046875,0.027256011962890625,0.019702572375535965,0.008073851466178894
1708009834215668000,12.99766796875,0.02426433563232422,0.014870643615722656,-0.009276211261749268
1708009834234223400,13.016223388671875,0.029052734375,-0.004189375787973404,-0.0068054646253585815
1708009834252778800,13.03477880859375,0.02007579803466797,0.005379494279623032,0.008206933736801147
1708009834271334400,13.05333447265625,0.024862289428710938,0.022127769887447357,0.005377531051635742
1708009834289889800,13.071889892578126,0.026656150817871094,-0.00182245671749115,-0.00938078761100769
1708009834308445200,13.090445068359376,0.03443622589111328,0.00529402494430542,0.007344871759414673
1708009834327000800,13.109000732421874,0.027258872985839844,0.007777083665132523,0.005200400948524475
1708009834345556200,13.12755615234375,0.038928985595703125,0.00539417564868927,-0.016431808471679688
1708009834364111600,13.146111572265625,0.024866104125976562,-0.0016713999211788177,-0.016308873891830444
1708009834382667300,13.164667236328125,0.03444194793701172,0.010397437959909439,0.0027902722358703613
1708009834401222700,13.18322265625,0.022470474243164062,0.005644422024488449,0.005137711763381958
1708009834419778000,13.201778076171875,0.029653549194335938,-0.001474730670452118,-0.00445421040058136
1708009834438333700,13.220333740234375,0.027260780334472656,0.008081015199422836,-0.018672555685043335
1708009834456889000,13.23888916015625,0.029653549194335938,0.019928820431232452,-0.01155756413936615
1708009834475444700,13.25744482421875,0.03204631805419922,0.003153543919324875,0.0075402408838272095
1708009834494000000,13.276000244140626,0.03204536437988281,-0.006438266485929489,0.012290164828300476
1708009834512555500,13.294555419921876,0.03444099426269531,0.012736201286315918,0.005190148949623108
1708009834531111000,13.31311083984375,0.029356956481933594,0.022241484373807907,-0.0018227100372314453
1708009834549666600,13.33166650390625,0.01948261260986328,0.0007394701242446899,-0.01580330729484558
1708009834568222000,13.350221923828125,0.031752586364746094,0.015021204948425293,-0.004055455327033997
1708009834586777600,13.368777587890625,0.03653907775878906,0.012468293309211731,-0.004164561629295349
1708009834605333000,13.3873330078125,0.022475242614746094,-0.011388149112462997,0.008251413702964783
1708009834623888400,13.405888427734375,0.029661178588867188,0.014868590980768204,-0.001470327377319336
1708009834642444000,13.424444091796875,0.029061317443847656,0.024543888866901398,-0.008752316236495972
1708009834660999400,13.44299951171875,0.026666641235351562,0.005298130214214325,-0.015938371419906616
1708009834679554800,13.461554931640626,0.029059410095214844,0.007715824991464615,-0.018442928791046143
1708009834698110500,13.4801103515625,0.026966094970703125,0.0005097463726997375,-0.00401635468006134
1708009834716665900,13.498665771484376,0.029059410095214844,0.009949583560228348,-0.01117376983165741
1708009834735221200,13.51722119140625,0.019479751586914062,-0.006915714591741562,-0.018470242619514465
1708009834753777000,13.53577685546875,0.02187347412109375,0.012279894202947617,-0.016143694519996643
1708009834772332300,13.554332275390625,0.015292167663574219,0.0027017295360565186,-0.006202474236488342
1708009834790887700,13.5728876953125,0.027261734008789062,0.009808268398046494,0.0007263869047164917
1708009834809443300,13.591443359375,0.041327476501464844,0.00015087798237800598,-0.006435364484786987
1708009834827998700,13.609998779296875,0.048809051513671875,0.012037869542837143,0.007963255047798157
1708009834846554400,13.628554443359375,0.04401683807373047,0.007214825600385666,0.019741564989089966
1708009834865109800,13.64710986328125,0.029654502868652344,0.011910121887922287,0.017490148544311523
1708009834883665200,13.6656650390625,0.02246856689453125,-0.0025825761258602142,0.007714390754699707
1708009834902220800,13.684220703125,0.02246856689453125,0.01887456327676773,-0.0014499872922897339
1708009834920776200,13.702776123046876,0.020076751708984375,0.006911691278219223,0.0010566115379333496
1708009834939331600,13.72133154296875,0.014987945556640625,0.00923130288720131,-0.00622965395450592
1708009834957887200,13.73988720703125,0.02905750274658203,0.0043682679533958435,-0.03259892761707306
1708009834976442600,13.758442626953125,0.033847808837890625,0.01866445690393448,-0.027645424008369446
1708009834994998300,13.776998291015625,0.038936614990234375,0.011435765773057938,-0.001214057207107544
1708009835013553700,13.7955537109375,0.046118736267089844,-0.0052358731627464294,0.0035653263330459595
1708009835032109000,13.814109130859375,0.024272918701171875,0.011501692235469818,-0.01321643590927124
1708009835050664700,13.832664794921875,0.033850669860839844,0.016326747834682465,-0.01795792579650879
1708009835069220000,13.85122021484375,0.02906513214111328,0.004376046359539032,-0.010574430227279663
1708009835087775500,13.869775390625,0.02247905731201172,-0.010020237416028976,0.0016393214464187622
1708009835106331100,13.8883310546875,0.022480010986328125,-0.005271494388580322,0.004000350832939148
1708009835124886500,13.906886474609376,0.014998435974121094,0.0019492320716381073,0.016260817646980286
1708009835143442000,13.92544189453125,0.024573326110839844,-0.0029125921428203583,0.02818058431148529
1708009835161997600,13.94399755859375,0.02666759490966797,0.008929185569286346,-0.002911016345024109
1708009835180553000,13.962552978515625,0.021882057189941406,0.020747743546962738,-0.03143545985221863
1708009835199108600,13.981108642578125,0.03385639190673828,0.023142855614423752,-0.02193567156791687
1708009835217664000,13.9996640625,0.0338592529296875,-0.014959517866373062,-0.0000152587890625
1708009835236219400,14.018219482421875,0.03625202178955078,-0.0029432475566864014,0.01901954412460327
1708009835254775000,14.036775146484375,0.0290679931640625,0.011266171932220459,-0.009713038802146912
1708009835273330400,14.055330322265625,0.005125999450683594,-0.0053885504603385925,-0.026539579033851624
1708009835291886000,14.073885986328126,0.02188587188720703,0.004270348697900772,-0.016939356923103333
1708009835310441500,14.09244140625,0.026674270629882812,0.0018484145402908325,0.007039859890937805
1708009835328996900,14.110996826171874,0.03176116943359375,-0.000509265810251236,0.021361425518989563
1708009835347552500,14.129552490234374,0.031463623046875,0.008911777287721634,0.011879593133926392
1708009835366108000,14.14810791015625,0.031462669372558594,0.01363428682088852,-0.0051724910736083984
1708009835384663300,14.166663330078125,0.021887779235839844,-0.0007429085671901703,-0.012031018733978271
1708009835403219000,14.185218994140625,0.019489288330078125,-0.003147631883621216,0.004553988575935364
1708009835421774300,14.2037744140625,0.02188587188720703,0.006360076367855072,-0.0025163888931274414
1708009835440330000,14.222330078125,0.026673316955566406,0.011107057332992554,-0.00728975236415863
1708009835458885400,14.240885498046875,0.0290679931640625,0.006230354309082031,-0.015022128820419312
1708009835477440800,14.259440673828125,0.019494056701660156,0.006210383027791977,-0.03376302123069763
1708009835495996400,14.277996337890626,0.03625297546386719,0.010998502373695374,-0.010018110275268555
1708009835514551800,14.2965517578125,0.031464576721191406,0.003922715783119202,0.009594917297363281
1708009835533107200,14.315107177734374,0.03445720672607422,-0.003295518457889557,0.011462509632110596
1708009835551662800,14.333662841796874,0.02937030792236328,0.013467304408550262,0.001874282956123352
1708009835570218200,14.35221826171875,0.024282455444335938,0.020615510642528534,-0.010125800967216492
1708009835588774000,14.37077392578125,0.02966785430908203,0.010924533009529114,0.006588473916053772
1708009835607329300,14.389329345703125,0.03445148468017578,-0.005886390805244446,0.01361154019832611
1708009835625885000,14.407885009765625,0.0296630859375,0.0013172850012779236,0.011455893516540527
1708009835644440300,14.4264404296875,0.029066085815429688,0.010675929486751556,-0.017421245574951172
1708009835662995700,14.44499560546875,0.02667522430419922,0.0012527070939540863,-0.017303496599197388
1708009835681551400,14.46355126953125,0.026975631713867188,0.0012072548270225525,-0.00017468631267547607
1708009835700106800,14.482106689453126,0.029668807983398438,0.025084292516112328,0.006742894649505615
1708009835718662100,14.500662109375,0.021890640258789062,-0.0035536400973796844,-0.014708995819091797
1708009835737217800,14.5192177734375,0.031470298767089844,0.008324887603521347,-0.012096747756004333
1708009835755773200,14.537773193359374,0.03147125244140625,0.005889978259801865,-0.009554699063301086
1708009835774328800,14.556328857421875,0.03147315979003906,0.005802169442176819,-0.0019542276859283447
1708009835792884200,14.57488427734375,0.0218963623046875,-0.006100807338953018,0.0030669867992401123
1708009835811439900,14.59343994140625,0.026685714721679688,0.02246250957250595,-0.004043087363243103
1708009835829995300,14.611995361328125,0.0218963623046875,0.0032699257135391235,-0.006719186902046204
1708009835848550700,14.630550537109375,0.0266876220703125,0.0057514868676662445,0.0008718818426132202
1708009835867106300,14.649106201171875,0.03386688232421875,-0.004052788019180298,0.002591460943222046
1708009835885661700,14.66766162109375,0.03625965118408203,0.007772129029035568,0.004970833659172058
1708009835904217000,14.686217041015626,0.017107009887695312,0.007664486765861511,0.0008348822593688965
1708009835922772700,14.704772705078126,0.02908039093017578,-0.0018237754702568054,-0.0041383057832717896
1708009835941328100,14.723328125,0.03386974334716797,0.010103661566972733,-0.0040809959173202515
1708009835959883800,14.7418837890625,0.019507408142089844,0.007632948458194733,0.0011983215808868408
1708009835978439200,14.760439208984375,0.02669239044189453,0.002805601805448532,-0.008238270878791809
1708009835996994800,14.778994873046875,0.03387641906738281,-0.0067620649933815,-0.006073653697967529
1708009836015550200,14.79755029296875,0.024301528930664062,0.005074396729469299,-0.015254050493240356
1708009836034105600,14.816105712890625,0.02908802032470703,-0.002110648900270462,-0.006017819046974182
1708009836052661200,14.8346611328125,0.03866386413574219,0.005053341388702393,-0.0063403695821762085
1708009836071216600,14.853216552734375,0.024297714233398438,0.014515168964862823,0.008548885583877563
1708009836089772300,14.871772216796876,0.02429676055908203,0.0048338137567043304,0.010961681604385376
1708009836108327700,14.89032763671875,0.02429962158203125,-0.014246165752410889,-0.0033100247383117676
1708009836126883300,14.90888330078125,0.03387451171875,0.03106755204498768,-0.00836588442325592
1708009836145438700,14.927438720703124,0.03387451171875,0.018954172730445862,-0.01072731614112854
1708009836163994000,14.945994140625,0.03626823425292969,-0.00495123490691185,0.025487035512924194
1708009836182549800,14.9645498046875,0.03387451171875,0.002070065587759018,0.008723333477973938
1708009836201105200,14.983105224609375,0.033873558044433594,0.03785307705402374,-0.013136103749275208
1708009836219660800,15.001660888671875,0.02190399169921875,0.006769653409719467,-0.029858529567718506
1708009836238216200,15.02021630859375,0.02190399169921875,0.01151510700583458,-0.003197386860847473
1708009836256771600,15.038771484375,0.021904945373535156,-0.005136128515005112,0.011181250214576721
1708009836275327200,15.0573271484375,0.02190685272216797,-0.005111489444971085,-0.007847249507904053
1708009836293882600,15.075882568359376,0.021909713745117188,-0.007450450211763382,-0.029546231031417847
1708009836312438300,15.094438232421876,0.03388023376464844,0.002026587724685669,0.001870080828666687
1708009836330993700,15.11299365234375,0.03387928009033203,-0.009970229119062424,0.01382601261138916
1708009836349549300,15.13154931640625,0.036271095275878906,-0.005176205188035965,0.004134342074394226
1708009836368104700,15.150104736328124,0.024301528930664062,-0.0004317834973335266,-0.005399569869041443
1708009836386660000,15.16866015625,0.033878326416015625,0.006741281598806381,0.0018191635608673096
1708009836405215700,15.1872158203125,0.029091835021972656,-0.0123850516974926,0.009116917848587036
1708009836423771100,15.205771240234375,0.02670001983642578,-0.005213256925344467,0.006824806332588196
1708009836442326800,15.224326904296875,0.02669811248779297,0.011528056114912033,-0.005228519439697266
1708009836460882200,15.242882080078125,0.02191448211669922,0.004327662289142609,-0.002576112747192383
1708009836479437800,15.261437744140625,0.026702880859375,0.00415155291557312,0.002289712429046631
1708009836497993200,15.2799931640625,0.031194686889648438,0.016044605523347855,-0.011915832757949829
1708009836516548600,15.298548583984376,0.031495094299316406,0.006395552307367325,-0.007015392184257507
1708009836535104300,15.317104248046874,0.03628063201904297,0.013417031615972519,-0.009804204106330872
1708009836553659600,15.33565966796875,0.029100418090820312,-0.005730148404836655,0.007380649447441101
1708009836572215300,15.35421533203125,0.029100418090820312,0.0038945600390434265,0.00016279518604278564
1708009836590770700,15.372770751953125,0.019525527954101562,-0.00790850818157196,-0.009365320205688477
1708009836609326300,15.391326416015625,0.029104232788085938,0.00650797039270401,-0.0021219849586486816
1708009836627881700,15.4098818359375,0.026708602905273438,-0.005394198000431061,0.002576008439064026
1708009836646437000,15.42843701171875,0.021920204162597656,0.00412663072347641,0.004958674311637878
1708009836664992800,15.44699267578125,0.0338897705078125,0.004153553396463394,0.0049006640911102295
1708009836683548200,15.465548095703125,0.04107093811035156,0.006482861936092377,0.0021681785583496094
1708009836702103800,15.484103759765626,0.029100418090820312,0.00409698486328125,0.004868805408477783
1708009836720659200,15.5026591796875,0.026704788208007812,0.018477827310562134,-0.00006559491157531738
1708009836739214800,15.52121484375,0.02909564971923828,-0.015126600861549377,0.009411603212356567
1708009836757770200,15.539770263671874,0.019522666931152344,-0.00800340250134468,0.00007395446300506592
1708009836776325600,15.55832568359375,0.02670574188232422,0.020730480551719666,0.00010401010513305664
1708009836794881300,15.57688134765625,0.028801918029785156,-0.0008704215288162231,-0.004603862762451172
1708009836813436700,15.595436767578125,0.024313926696777344,-0.010411888360977173,-0.01176653802394867
1708009836831992300,15.613992431640625,0.031197547912597656,0.022980904206633568,-0.01647983491420746
1708009836850547700,15.632547607421875,0.031494140625,-0.000993836671113968,-0.004590362310409546
1708009836869103400,15.651103271484375,0.0290985107421875,0.0038011744618415833,0.007284432649612427
1708009836887658800,15.66965869140625,0.038674354553222656,0.0037687793374061584,-0.002382025122642517
1708009836906214400,15.68821435546875,0.026699066162109375,0.008467298001050949,0.006975188851356506
1708009836924769800,15.706769775390624,0.02190876007080078,-0.00583537295460701,0.0020425617694854736
1708009836943325400,15.725325439453124,0.019512176513671875,0.010963011533021927,0.0019452571868896484
1708009836961880800,15.743880859375,0.02908802032470703,0.0037229210138320923,-0.0004861801862716675
1708009836980436200,15.762436279296875,0.024298667907714844,-0.0012437254190444946,0.004209369421005249
1708009836998992000,15.780991943359375,0.03387260437011719,0.001060929149389267,0.003868997097015381
1708009837017547300,15.79954736328125,0.026694297790527344,0.010663244873285294,0.0019501149654388428
1708009837036103000,15.81810302734375,0.01711750030517578,-0.010852620005607605,-0.014799773693084717
1708009837054658300,15.836658203125,0.02909088134765625,0.0034561119973659515,-0.02004776895046234
1708009837073214000,15.8552138671875,0.02909374237060547,0.0010552480816841125,-0.007593527436256409
1708009837091769300,15.873769287109376,0.02670001983642578,0.0034528113901615143,0.00947694480419159
1708009837110325000,15.892324951171876,0.026697158813476562,-0.006089888513088226,0.006612211465835571
1708009837128880400,15.91088037109375,0.024301528930664062,0.003405023366212845,0.006851226091384888
1708009837147436000,15.92943603515625,0.019512176513671875,-0.0014794059097766876,-0.01707608997821808
1708009837165991400,15.947991455078125,0.02908802032470703,0.017679639160633087,-0.007854446768760681
1708009837184546800,15.966546875,0.024298667907714844,-0.008662309497594833,0.013862565159797668
1708009837203102500,15.9851025390625,0.02669048309326172,-0.02288317307829857,0.0041852593421936035
1708009837221657900,16.003657958984373,0.0266876220703125,0.008239839226007462,-0.00826747715473175
1708009837240213500,16.022213623046873,0.03147315979003906,0.015248004347085953,-0.01075693964958191
1708009837258769000,16.040768798828125,0.024591445922851562,-0.003860738128423691,0.008710667490959167
1708009837277324500,16.059324462890626,0.029079437255859375,-0.006157815456390381,-0.00330527126789093
1708009837295880000,16.0778798828125,0.031475067138671875,0.008142832666635513,-0.020599380135536194
1708009837314435600,16.096435546875,0.031472206115722656,0.0032709576189517975,-0.023125961422920227
1708009837332991000,16.114990966796874,0.02668285369873047,-0.011098507791757584,-0.005812451243400574
1708009837351546600,16.133546630859374,0.014712333679199219,-0.008736494928598404,0.006180599331855774
1708009837370102000,16.15210205078125,0.03146934509277344,-0.0039284974336624146,0.008499473333358765
1708009837388657400,16.170657470703127,0.026380538940429688,0.005585663020610809,-0.008376315236091614
1708009837407213000,16.189213134765627,0.02188873291015625,0.015061464160680771,0.0034687817096710205
1708009837425768400,16.2077685546875,0.0386505126953125,0.0032173283398151398,0.0012214034795761108
1708009837444324000,16.226323974609375,0.03625679016113281,0.0008226186037063599,0.0036332011222839355
1708009837462879500,16.24487939453125,0.02667713165283203,0.0177142396569252,-0.001339927315711975
1708009837481435100,16.26343505859375,0.024283409118652344,-0.001557815819978714,0.0034681111574172974
1708009837499990500,16.281990478515624,0.02428150177001953,-0.0016045458614826202,0.012924954295158386
1708009837518546200,16.300546142578124,0.01949310302734375,0.008029676973819733,-0.003795415163040161
1708009837537101600,16.3191015625,0.019494056701660156,0.010332327336072922,-0.006082713603973389
1708009837555657200,16.3376572265625,0.024283409118652344,0.0031932927668094635,-0.001311957836151123
1708009837574212600,16.356212646484376,0.038649559020996094,0.005628626793622971,0.00594407320022583
1708009837592768300,16.374768310546877,0.0338592529296875,-0.004068460315465927,-0.00877101719379425
1708009837611323600,16.39332373046875,0.033858299255371094,0.0007130540907382965,-0.010921314358711243
1708009837629879300,16.41187939453125,0.017099380493164062,0.0031600259244441986,-0.0013586580753326416
1708009837648434700,16.4304345703125,0.01949310302734375,-0.004005059599876404,-0.006141543388366699
1708009837666990300,16.448990234375,0.014705657958984375,-0.00403212383389473,0.0009998828172683716
1708009837685545700,16.467545654296874,0.029069900512695312,0.007929988205432892,0.0010229498147964478
1708009837704101400,16.486101318359374,0.02667713165283203,-0.003930728882551193,-0.006112813949584961
1708009837722656800,16.50465673828125,0.031467437744140625,0.005599573254585266,0.0011475533246994019
1708009837741212400,16.52321240234375,0.03146839141845703,-0.0064720213413238525,-0.003544241189956665
1708009837759767800,16.541767822265626,0.0362548828125,-0.001708444207906723,0.008379623293876648
1708009837778323500,16.560323486328127,0.0362548828125,-0.006482977420091629,0.010754957795143127
1708009837796878800,16.57887890625,0.01949596405029297,-0.0016290880739688873,0.001197025179862976
1708009837815434500,16.5974345703125,0.024282455444335938,0.007942643016576767,-0.010935261845588684
1708009837833990000,16.615989990234375,0.02907085418701172,0.0127016082406044,-0.008507445454597473
1708009837852545500,16.634545654296875,0.01949310302734375,0.0006779171526432037,-0.0037908852100372314
1708009837871101000,16.653100830078124,0.0362548828125,0.0008018426597118378,0.01069486141204834
1708009837889656600,16.671656494140624,0.033858299255371094,0.005488231778144836,-0.0037939250469207764
1708009837908212000,16.6902119140625,0.023981094360351562,0.0126943439245224,-0.013424545526504517
1708009837926767600,16.708767578125,0.024285316467285156,0.005480322986841202,-0.013183251023292542
1708009837945323000,16.727322998046876,0.026679039001464844,0.012663789093494415,-0.0012250244617462158
1708009837963878700,16.745878662109376,0.03625679016113281,-0.001706976443529129,-0.010731741786003113
1708009837982434000,16.76443408203125,0.026676177978515625,-0.0016345977783203125,0.0010596364736557007
1708009838000989700,16.78298974609375,0.031462669372558594,-0.004006490111351013,0.000987127423286438
1708009838019545000,16.801545166015625,0.029069900512695312,0.0032378174364566803,0.0009709745645523071
1708009838038100700,16.820100830078125,0.01709747314453125,-0.006319418549537659,-0.008657962083816528
1708009838056656100,16.83865625,0.029068946838378906,0.0008927658200263977,-0.00864681601524353
1708009838075211800,16.857211669921874,0.031464576721191406,0.005896899849176407,-0.01346123218536377
1708009838093767200,16.87576708984375,0.026673316955566406,0.001067478209733963,-0.0016221851110458374
1708009838112322800,16.89432275390625,0.024278640747070312,-0.010859012603759766,0.01507936418056488
1708009838130878200,16.912878173828126,0.017093658447265625,0.005956735461950302,0.0005750060081481934
1708009838149433900,16.931433837890626,0.029064178466796875,0.010785292834043503,-0.0018208622932434082
1708009838167989200,16.9499892578125,0.031459808349609375,0.003571692854166031,-0.004160568118095398
1708009838186545000,16.968544921875,0.024277687072753906,0.0012461580336093903,0.007786184549331665
1708009838205100300,16.987100341796875,0.029064178466796875,0.010877911001443863,0.00292302668094635
1708009838223656000,17.005656005859375,0.01948833465576172,0.0037233643233776093,-0.006603151559829712
1708009838242211300,17.02421142578125,0.029064178466796875,0.010942410677671432,-0.0090864896774292
1708009838260767000,17.04276708984375,0.021881103515625,0.003635197877883911,-0.016292691230773926
1708009838279322400,17.061322265625,0.02906322479248047,-0.0012056082487106323,0.010064154863357544
1708009838297878000,17.0798779296875,0.019484519958496094,-0.003627341240644455,0.002794235944747925
1708009838316433400,17.098433349609376,0.036243438720703125,0.005889352411031723,0.002810835838317871
1708009838334989000,17.116989013671876,0.02906322479248047,-0.001172337681055069,-0.006687656044960022
1708009838353544400,17.13554443359375,0.026668548583984375,0.003600429743528366,-0.011528536677360535
1708009838372100000,17.15410009765625,0.024274826049804688,-0.010592501610517502,0.000376775860786438
1708009838390655700,17.17265576171875,0.03624534606933594,0.013311725109815598,-0.001981303095817566
1708009838409211100,17.191211181640625,0.02666759490966797,0.00838317722082138,0.00039768218994140625
1708009838427766800,17.209766845703125,0.029061317443847656,-0.008455131202936172,-0.0067757368087768555
1708009838446322200,17.228322265625,0.03564453125,-0.0012486502528190613,-0.021211132407188416
1708009838464877800,17.2468779296875,0.03145408630371094,0.01313149556517601,0.007480904459953308
1708009838483433200,17.26543310546875,0.033847808837890625,-0.013174783438444138,0.014640256762504578
1708009838501988900,17.28398876953125,0.02427196502685547,0.0036118105053901672,0.009848371148109436
1708009838520544300,17.302544189453126,0.01948261260986328,0.010772380977869034,-0.016472429037094116
1708009838539100000,17.321099853515626,0.029056549072265625,0.00834832713007927,-0.016644194722175598
1708009838557655300,17.3396552734375,0.029056549072265625,-0.006046455353498459,-0.007053598761558533
1708009838576211000,17.3582109375,0.03623771667480469,-0.003687191754579544,-0.002339377999305725
1708009838594766300,17.376766357421875,0.03384113311767578,0.010668698698282242,-0.007205173373222351
1708009838613322000,17.395322021484375,0.02905559539794922,0.0011346451938152313,-0.014252454042434692
1708009838631877600,17.413877685546876,0.02665996551513672,0.005929738283157349,-0.009602934122085571
1708009838650433000,17.43243310546875,0.029051780700683594,0.015480902045965195,-0.004957348108291626
1708009838668988700,17.45098876953125,0.019472122192382812,-0.0013336464762687683,0.011693134903907776
1708009838687544000,17.4695439453125,0.026658058166503906,-0.00845375657081604,-0.0001506507396697998
1708009838706099700,17.488099609375,0.029051780700683594,0.010585125535726547,-0.01688934862613678
1708009838724655000,17.506655029296876,0.021869659423828125,0.005827844142913818,-0.007293045520782471
1708009838743210800,17.525210693359377,0.024265289306640625,-0.017945457249879837,-0.00005842745304107666
1708009838761766100,17.54376611328125,0.029054641723632812,0.0036026574671268463,0.014404937624931335
1708009838780321800,17.56232177734375,0.03145122528076172,-0.0012297369539737701,-0.004659518599510193
1708009838798877200,17.580877197265625,0.026663780212402344,0.008446913212537766,-0.0022148191928863525
1708009838817432800,17.599432861328125,0.024272918701171875,-0.0010695196688175201,-0.0045063793659210205
1708009838835988500,17.617988525390626,0.021880149841308594,0.006209623068571091,0.005195364356040955
1708009838854544000,17.6365439453125,0.024274826049804688,0.0013165958225727081,0.007607609033584595
1708009838873099500,17.655099609375,0.021884918212890625,0.00837845727801323,-0.01602911949157715
1708009838891655000,17.673655029296874,0.02906513214111328,0.005924448370933533,-0.013710856437683105
1708009838910210600,17.69221044921875,0.019491195678710938,0.005841430276632309,0.0032164454460144043
1708009838928766000,17.710765869140626,0.03145885467529297,-0.008490949869155884,0.0030288100242614746
1708009838947321600,17.729321533203127,0.031459808349609375,-0.003743033856153488,0.00543975830078125
1708009838965877000,17.747876953125,0.028768539428710938,0.005878385156393051,-0.011125773191452026
1708009838984432600,17.7664326171875,0.02847003936767578,0.0034148283302783966,-0.013494357466697693
1708009839002988000,17.784988037109375,0.01949310302734375,-0.0013532750308513641,0.00810106098651886
1708009839021543700,17.803543701171876,0.01949596405029297,-0.010928135365247726,0.008279010653495789
1708009839040099300,17.822099365234376,0.01710033416748047,0.0033876076340675354,0.00338667631149292
1708009839058654700,17.84065478515625,0.03146553039550781,-0.006232112646102905,0.001086398959159851
1708009839077210400,17.85921044921875,0.026678085327148438,0.003297600895166397,-0.006108909845352173
1708009839095765800,17.877765869140624,0.031467437744140625,-0.0013728849589824677,-0.006112426519393921
1708009839114321400,17.8963212890625,0.03355884552001953,0.0034260600805282593,-0.011108040809631348
1708009839132876800,17.914876708984377,0.0383453369140625,0.005827479064464569,-0.00398862361907959
1708009839151432400,17.933432373046877,0.021584510803222656,0.005493931472301483,-0.004060015082359314
1708009839169988000,17.951988037109373,0.02397918701171875,-0.0014530196785926819,-0.001666933298110962
1708009839188543500,17.97054345703125,0.019489288330078125,-0.0015573874115943909,0.003207758069038391
1708009839207099100,17.98909912109375,0.03086376190185547,0.0009683780372142792,-0.008714288473129272
1708009839225654500,18.007654541015626,0.023681640625,0.012676406651735306,-0.011142507195472717
1708009839244210200,18.026210205078126,0.01949310302734375,-0.003765527158975601,-0.0014423727989196777
1708009839262765600,18.044765625,0.02907085418701172,0.015012986958026886,0.005815595388412476
1708009839281321200,18.0633212890625,0.026678085327148438,-0.0062232837080955505,0.0010660141706466675
1708009839299876900,18.081876953125,0.028776168823242188,0.005805611610412598,-0.005953788757324219
1708009839318432300,18.100432373046875,0.030869483947753906,0.00568084791302681,-0.015548691153526306
1708009839336988000,18.11898779296875,0.02159404754638672,0.007493305951356888,0.0013015717267990112
1708009839355543300,18.137543212890623,0.01949787139892578,-0.013821013271808624,0.0036794841289520264
1708009839374099000,18.156098876953124,0.031464576721191406,-0.0016038492321968079,0.008257076144218445
1708009839392654300,18.174654296875,0.02188587188720703,-0.0019134432077407837,0.0009395629167556763
1708009839411210000,18.1932099609375,0.019489288330078125,-0.004576381295919418,0.005588605999946594
1708009839429765400,18.211765380859376,0.02906513214111328,-0.00886395201086998,0.005578562617301941
1708009839448321000,18.230321044921876,0.02158355712890625,0.012063208967447281,-0.006438940763473511
1708009839466876700,18.248876708984376,0.035651206970214844,0.00540093332529068,-0.018258750438690186
1708009839485432000,18.26743212890625,0.03326129913330078,-0.0017790719866752625,-0.013250604271888733
1708009839503987700,18.28598779296875,0.03116321563720703,-0.001836102455854416,0.003390491008758545
1708009839522543000,18.304543212890625,0.033555030822753906,-0.0019990764558315277,0.003254309296607971
1708009839541098800,18.3230986328125,0.01919078826904297,0.0005156584084033966,-0.013436511158943176
1708009839559654400,18.341654296875,0.028769493103027344,0.00296982005238533,-0.010961085557937622
1708009839578209800,18.360209716796874,0.01949596405029297,-0.004219722002744675,0.0012333989143371582
1708009839596765400,18.378765380859374,0.036251068115234375,0.005295451730489731,0.015410885214805603
1708009839615320800,18.39732080078125,0.0290679931640625,0.005216091871261597,0.015395328402519226
1708009839633876500,18.41587646484375,0.02667522430419922,0.007577493786811829,-0.0013009309768676758
1708009839652432000,18.434431884765626,0.033562660217285156,0.0028221942484378815,-0.010695412755012512
1708009839670987500,18.452987548828126,0.01949596405029297,0.005170255899429321,0.001327425241470337
1708009839689543200,18.471543212890627,0.024285316467285156,-0.00912901759147644,-0.008256793022155762
1708009839708098600,18.4900986328125,0.021889686584472656,0.007670700550079346,-0.0011746138334274292
1708009839726654200,18.508654296875,0.023987770080566406,0.005360111594200134,-0.008235201239585876
1708009839745209600,18.527209716796875,0.019500732421875,-0.006680931895971298,0.011104568839073181
1708009839763765200,18.54576513671875,0.029074668884277344,0.0004339553415775299,-0.005754530429840088
1708009839782320600,18.564320556640624,0.038055419921875,0.007459864020347595,-0.008005127310752869
1708009839800876300,18.582876220703124,0.02907562255859375,0.005112010985612869,-0.00804649293422699
1708009839819432000,18.601431884765624,0.041046142578125,-0.0020525678992271423,0.008675545454025269
1708009839837987300,18.6199873046875,0.03146553039550781,0.007499519735574722,0.0012587010860443115
1708009839856543000,18.63854296875,0.028772354125976562,0.002858966588973999,-0.005972668528556824
1708009839875098400,18.657098388671876,0.02667999267578125,0.0004721395671367645,0.0013089627027511597
1708009839893654000,18.675654052734377,0.02667999267578125,0.005371205508708954,0.006066322326660156
1708009839912209700,18.694209716796873,0.03595733642578125,0.007745768874883652,-0.0010957270860671997
1708009839930765000,18.71276513671875,0.02637958526611328,0.003048151731491089,-0.008317410945892334
1708009839949320700,18.73132080078125,0.02667999267578125,0.014966689050197601,-0.005912289023399353
1708009839967876000,18.7498759765625,0.03835105895996094,0.010210447013378143,-0.003461778163909912
1708009839986431700,18.768431640625,0.033565521240234375,-0.0066960155963897705,-0.008137181401252747
1708009840004987400,18.7869873046875,0.02368640899658203,0.01480041816830635,-0.015442043542861938
1708009840023542800,18.805542724609374,0.031167984008789062,0.010022260248661041,-0.005891978740692139
1708009840042098400,18.824098388671874,0.024286270141601562,-0.009057238698005676,0.0037282556295394897
1708009840060653800,18.84265380859375,0.02907276153564453,0.0028976015746593475,0.00847691297531128
1708009840079209500,18.86120947265625,0.03146648406982422,0.005145948380231857,0.0036540478467941284
1708009840097765000,18.87976513671875,0.028771400451660156,0.0027794688940048218,-0.008351728320121765
1708009840116320500,18.898320556640623,0.02667713165283203,-0.004307515919208527,-0.0036028921604156494
1708009840134876200,18.916876220703124,0.03146553039550781,-0.001913607120513916,0.008370012044906616
1708009840153431800,18.935431884765624,0.02398204803466797,-0.0069738104939460754,0.0010607093572616577
1708009840171987200,18.9539873046875,0.028473854064941406,0.0028369873762130737,-0.008282363414764404
1708009840190542800,18.97254296875,0.031167984008789062,-0.004584714770317078,0.003671124577522278
1708009840209098200,18.99109814453125,0.030866622924804688,0.0005523264408111572,0.0011545121669769287
1708009840227654000,19.00965380859375,0.02368640899658203,0.0028818435966968536,-0.005924001336097717
1708009840246209300,19.028209228515625,0.02608013153076172,0.012117095291614532,-0.0011382699012756348
1708009840264765000,19.046764892578125,0.026081085205078125,0.009390965104103088,-0.001015588641166687
1708009840283320600,19.065320556640625,0.026384353637695312,0.009644899517297745,-0.005585327744483948
1708009840301876000,19.0838759765625,0.028479576110839844,-0.016466401517391205,-0.00552031397819519
1708009840320431600,19.102431640625,0.0236968994140625,0.014230020344257355,-0.009989768266677856
1708009840338987300,19.1209873046875,0.03327655792236328,0.014543797820806503,-0.012232884764671326
1708009840357542700,19.139542724609374,0.02669048309326172,-0.0068505555391311646,0.004399999976158142
1708009840376098300,19.158098388671874,0.026689529418945312,0.01438358798623085,0.0067102909088134766
1708009840394653700,19.17665380859375,0.028484344482421875,0.005036894232034683,-0.002871766686439514
1708009840413209300,19.195209228515626,0.02639007568359375,0.002684708684682846,-0.002863064408302307
1708009840431765000,19.213764892578126,0.03357124328613281,0.002581041306257248,0.0018974393606185913
1708009840450320400,19.2323203125,0.03147602081298828,0.007405418902635574,0.011413425207138062
1708009840468876000,19.2508759765625,0.023996353149414062,0.0027024373412132263,-0.0052254945039749146
1708009840487431400,19.269431396484375,0.023996353149414062,-0.002026911824941635,-0.002879217267036438
1708009840505987000,19.287987060546875,0.026090621948242188,-0.004348549991846085,-0.002865716814994812
1708009840524542700,19.306542724609375,0.026090621948242188,-0.009132809937000275,-0.005246847867965698
1708009840543098000,19.32509814453125,0.026689529418945312,0.0004057958722114563,-0.0004777759313583374
1708009840561653800,19.34365380859375,0.030881881713867188,-0.0019198432564735413,-0.005146995186805725
1708009840580209400,19.36220947265625,0.030882835388183594,0.0004087984561920166,-0.007459655404090881
1708009840598764800,19.380764892578124,0.0240020751953125,-0.0020132362842559814,-0.0025665760040283203
1708009840617320400,19.399320556640625,0.026098251342773438,-0.0042960792779922485,-0.009690433740615845
1708009840635875800,19.417875732421876,0.029092788696289062,0.002992618829011917,0.004773363471031189
1708009840654431500,19.436431396484377,0.028491973876953125,0.0005926191806793213,-0.012117788195610046
1708009840672987100,19.454987060546873,0.019514083862304688,0.00990321859717369,0.0022404640913009644
1708009840691542500,19.47354248046875,0.026397705078125,0.0005073025822639465,-0.00006245076656341553
1708009840710098200,19.49209814453125,0.03088665008544922,0.007653821259737015,-0.00008848309516906738
1708009840728653800,19.51065380859375,0.026696205139160156,0.014758061617612839,-0.00009994208812713623
1708009840747209200,19.529209228515626,0.024301528930664062,0.0004413984715938568,-0.004950568079948425
1708009840765764900,19.547764892578126,0.03387641906738281,0.007543608546257019,0.0045500099658966064
1708009840784320300,19.5663203125,0.024300575256347656,-0.009087175130844116,0.01650579273700714
1708009840802876000,19.5848759765625,0.024300575256347656,-0.006631888449192047,0.006946131587028503
1708009840821431600,19.603431640625,0.021307945251464844,0.014587398618459702,-0.02167855203151703
1708009840839987000,19.621987060546875,0.024300575256347656,-0.006731826812028885,-0.00023065507411956787
1708009840858542600,19.64054248046875,0.04105949401855469,0.0004674866795539856,0.004579886794090271
1708009840877098200,19.65909814453125,0.03148174285888672,-0.004390224814414978,-0.0002490878105163574
1708009840895653600,19.677653564453124,0.03148174285888672,0.0003267452120780945,-0.009750723838806152
1708009840914209300,19.696209228515624,0.02639484405517578,0.009816981852054596,-0.016979098320007324
1708009840932764700,19.7147646484375,0.0332794189453125,0.007308822125196457,0.004619479179382324
1708009840951320300,19.7333203125,0.026696205139160156,-0.009132634848356247,0.009459972381591797
1708009840969876000,19.7518759765625,0.02400684356689453,0.004672542214393616,0.009624123573303223
1708009840988431400,19.770431396484376,0.02131175994873047,0.012045677751302719,-0.009564816951751709
1708009841006987000,19.788987060546877,0.02849578857421875,-0.002046845853328705,-0.014214545488357544
1708009841025542700,19.807542724609377,0.04076671600341797,0.014795415103435516,0.00023709237575531006
1708009841044098000,19.82609814453125,0.03567981719970703,-0.006751097738742828,-0.0021948963403701782
1708009841062653700,19.84465380859375,0.03357982635498047,0.0027138441801071167,-0.00005091726779937744
1708009841081209300,19.863209228515625,0.02370738983154297,0.0002968050539493561,-0.009464815258979797
1708009841099764700,19.8817646484375,0.030887603759765625,0.011872343719005585,0.00009720027446746826
1708009841118320400,19.9003203125,0.030884742736816406,-0.01173008605837822,-0.007307112216949463
1708009841136876000,19.9188759765625,0.031183242797851562,0.01911187916994095,0.004622802138328552
1708009841155431400,19.937431396484374,0.03148174285888672,-0.002098068594932556,0.004586562514305115
1708009841173987000,19.955987060546875,0.026395797729492188,-0.004461467266082764,-0.004886850714683533
1708009841192542500,19.97454248046875,0.02609539031982422,0.004984181374311447,-0.014550179243087769
1708009841211098000,19.99309814453125,0.03117847442626953,0.00973387062549591,-0.0027881115674972534
1708009841229653800,20.01165380859375,0.02189922332763672,-0.011834435164928436,0.009031474590301514
1708009841248209200,20.030209228515623,0.02668476104736328,0.00725385919213295,0.011312797665596008
1708009841266764800,20.048764892578124,0.019201278686523438,-0.007165681570768356,-0.01029101014137268
1708009841285320400,20.067320556640624,0.028478622436523438,0.009607672691345215,-0.024648800492286682
1708009841303875800,20.085875732421876,0.021596908569335938,-0.002369459718465805,-0.005414858460426331
1708009841322431500,20.104431396484376,0.040450096130371094,-0.00033638253808021545,0.006566524505615234
1708009841340987000,20.12298681640625,0.028478622436523438,0.0017523691058158875,-0.0054890066385269165
1708009841359542500,20.14154248046875,0.02608489990234375,0.006441880017518997,-0.01021873950958252
1708009841378098200,20.16009814453125,0.014115333557128906,0.004071272909641266,-0.017361193895339966
1708009841396653800,20.17865380859375,0.02159881591796875,0.004010211676359177,0.004295125603675842
1708009841415209200,20.197209228515625,0.03566455841064453,-0.0031268559396266937,-0.00045877695083618164
1708009841433764900,20.215764892578125,0.038056373596191406,0.016003988683223724,0.001779302954673767
1708009841452320500,20.234320556640625,0.03326606750488281,-0.002981044352054596,-0.003127068281173706
1708009841470876000,20.2528759765625,0.026082992553710938,0.008592888712882996,0.0017010271549224854
1708009841489431600,20.271431640625,0.026083946228027344,-0.0033732056617736816,-0.010210871696472168
1708009841507987000,20.289987060546874,0.030874252319335938,0.020572444424033165,-0.0005304813385009766
1708009841526542600,20.30854248046875,0.03356647491455078,-0.003381595015525818,0.011335760354995728
1708009841545098200,20.32709814453125,0.009624481201171875,-0.00829075276851654,0.0017721056938171387
1708009841563653600,20.345653564453126,0.023687362670898438,0.00593937560915947,-0.010288015007972717
1708009841582209300,20.364209228515627,0.02129364013671875,0.008225757628679276,-0.0030381977558135986
1708009841600765000,20.382764892578123,0.033267974853515625,-0.015331409871578217,0.006633132696151733
1708009841619320300,20.4013203125,0.0263824462890625,0.003582485020160675,0.008969530463218689
1708009841637876000,20.4198759765625,0.033265113830566406,0.0014713294804096222,-0.0054624080657958984
1708009841656431600,20.438431640625,0.030869483947753906,0.0060462988913059235,-0.007951423525810242
1708009841674987000,20.456987060546876,0.02159404754638672,0.0059859491884708405,-0.003040134906768799
1708009841693542700,20.475542724609376,0.033263206481933594,0.0035658329725265503,-0.0007686316967010498
1708009841712098300,20.494098388671876,0.01650238037109375,0.0011272691190242767,-0.0032883882522583008
1708009841730653700,20.51265380859375,0.023682594299316406,0.010502591729164124,-0.010508745908737183
1708009841749209300,20.531209228515625,0.028470993041992188,0.008133556693792343,0.0015073716640472412
1708009841767765000,20.549764892578125,0.03385639190673828,-0.0015096142888069153,0.013412296772003174
1708009841786320400,20.5683203125,0.038643836975097656,-0.0082874596118927,0.010975778102874756
1708009841804876000,20.5868759765625,0.023681640625,0.00539865717291832,-0.010451897978782654
1708009841823431700,20.605431640625,0.038048744201660156,0.0008915066719055176,0.0016370415687561035
1708009841841987000,20.623987060546874,0.026375770568847656,-0.01595054194331169,0.0063692182302474976
1708009841860542700,20.642542724609374,0.01470184326171875,-0.0019682906568050385,0.006211042404174805
1708009841879098400,20.661098388671874,0.026076316833496094,0.012472163885831833,-0.012765884399414062
1708009841897653800,20.67965380859375,0.026078224182128906,0.0008316673338413239,-0.017453819513320923
1708009841916209400,20.69820947265625,0.02428150177001953,-0.00908287987112999,0.01117698848247528
1708009841934765000,20.71676513671875,0.031462669372558594,-0.010789066553115845,0.008721426129341125
1708009841953320400,20.735320556640627,0.03116130828857422,0.015389926731586456,-0.003356561064720154
1708009841971876000,20.7538759765625,0.02607250213623047,0.008234903216362,-0.008209973573684692
1708009841990431700,20.772431640625,0.03385448455810547,-0.008632563054561615,0.013419315218925476
1708009842008987100,20.790987060546875,0.04103565216064453,-0.006222248077392578,0.018137022852897644
1708009842027542800,20.809542724609376,0.038041114807128906,0.0008268542587757111,-0.008221402764320374
1708009842046098400,20.828098388671876,0.019486427307128906,0.003110140562057495,-0.003428235650062561
1708009842064653800,20.84665380859375,0.009909629821777344,-0.00398988276720047,0.001295626163482666
1708009842083209500,20.86520947265625,0.02906322479248047,0.010354883968830109,0.006166860461235046
1708009842101765000,20.88376513671875,0.026670455932617188,-0.015843138098716736,0.006129667162895203
1708009842120320500,20.902320556640625,0.028764724731445312,-0.0014574676752090454,-0.008226588368415833
1708009842138876200,20.920876220703125,0.040435791015625,0.01757720857858658,-0.008222788572311401
1708009842157431800,20.939431884765625,0.030857086181640625,-0.0088585764169693,-0.005921915173530579
1708009842175987200,20.9579873046875,0.033847808837890625,-0.0017098858952522278,0.0011443495750427246
1708009842194542800,20.97654296875,0.02666473388671875,0.0007858835160732269,0.0010748952627182007
1708009842213098500,20.995098388671874,0.024270057678222656,-0.004120867699384689,-0.0037165284156799316
1708009842231654000,21.01365380859375,0.019481658935546875,-0.006503935903310776,-0.0037241131067276
1708009842250209500,21.03220947265625,0.02187824249267578,0.007799826562404633,-0.005946338176727295
1708009842268765200,21.05076513671875,0.031154632568359375,-0.00414576381444931,-0.005996838212013245
1708009842287320600,21.069320556640626,0.033550262451171875,0.0053042396903038025,0.0036304593086242676
1708009842305876200,21.087876220703127,0.03384876251220703,0.010121606290340424,0.013216778635978699
1708009842324432000,21.106431884765627,0.040734291076660156,0.005083855241537094,0.001384541392326355
1708009842342987300,21.1249873046875,0.02367401123046875,0.019136590883135796,-0.005969002842903137
1708009842361543000,21.14354296875,0.02127838134765625,-0.004865370690822601,-0.010802984237670898
1708009842380098600,21.1620986328125,0.0239715576171875,-0.011983592063188553,0.005890458822250366
1708009842398654200,21.180654296875,0.02875804901123047,-0.002328496426343918,0.0034684985876083374
1708009842417209600,21.199209716796876,0.02127838134765625,0.00021266192197799683,-0.013248741626739502
1708009842435765200,21.21776513671875,0.023677825927734375,-0.004247069358825684,-0.003418251872062683
1708009842454321000,21.23632080078125,0.03325176239013672,0.004978399723768234,-0.0035677552223205566
1708009842472876300,21.254876220703125,0.028760910034179688,-0.004271842539310455,-0.0012348592281341553
1708009842491432000,21.273431884765625,0.021577835083007812,-0.004532419145107269,-0.0012724846601486206
1708009842509987600,21.291987548828125,0.02606678009033203,0.00285382941365242,-0.01326201856136322
1708009842528543000,21.31054296875,0.01888561248779297,0.00017946213483810425,-0.010785207152366638
1708009842547098600,21.3290986328125,0.021280288696289062,0.002679247409105301,-0.0011958032846450806
1708009842565654300,21.347654296875,0.026067733764648438,0.007402088493108749,-0.0012519508600234985
1708009842584209700,21.366209716796874,0.02606487274169922,0.00023105740547180176,0.003360956907272339
1708009842602765300,21.384765380859374,0.030852317810058594,0.00030325353145599365,-0.001496046781539917
1708009842621321000,21.403321044921874,0.03563880920410156,0.009900011122226715,0.00316774845123291
1708009842639876600,21.421876708984374,0.019178390502929688,-0.023493822664022446,0.0031643807888031006
1708009842658432000,21.440431884765626,0.03085041046142578,0.003028474748134613,-0.0016739815473556519
1708009842676987600,21.458987548828127,0.033245086669921875,0.003032602369785309,0.0031002461910247803
1708009842695543300,21.477543212890627,0.018881797790527344,-0.0016998238861560822,-0.003979712724685669
1708009842714098700,21.4960986328125,0.01648998260498047,-0.001738138496875763,-0.015843376517295837
1708009842732654300,21.514654296875,0.03325080871582031,0.014940056949853897,-0.020456045866012573
1708009842751210000,21.5332099609375,0.03564643859863281,-0.0064334869384765625,0.003493398427963257
1708009842769765400,21.551765380859376,0.02397441864013672,-0.0017006732523441315,0.010647311806678772
1708009842788321000,21.570321044921876,0.026067733764648438,-0.004179563373327255,0.0010520517826080322
1708009842806876700,21.588876708984376,0.02606678009033203,0.005299512296915054,-0.01809266209602356
1708009842825432000,21.60743212890625,0.04043388366699219,0.005284007638692856,-0.013199150562286377
1708009842843987700,21.62598779296875,0.040431976318359375,-0.0018634013831615448,0.017886340618133545
1708009842862543400,21.64454345703125,0.033249855041503906,-0.008887194097042084,0.010555893182754517
1708009842881098800,21.6630986328125,0.023673057556152344,0.010143108665943146,-0.010986462235450745
1708009842899654400,21.681654296875,0.026065826416015625,0.010237257927656174,-0.011060208082199097
1708009842918210000,21.7002099609375,0.026662826538085938,0.012684501707553864,0.017567962408065796
1708009842936765700,21.718765625,0.038336753845214844,-0.0039824433624744415,0.012908652424812317
1708009842955321000,21.737321044921874,0.030854225158691406,-0.0012604817748069763,-0.008684396743774414
1708009842973876700,21.755876708984374,0.030857086181640625,0.0056982748210430145,-0.022924751043319702
1708009842992432400,21.774432373046874,0.02606964111328125,0.0009254701435565948,-0.008547499775886536
1708009843010987800,21.79298779296875,0.02367687225341797,-0.01332530751824379,-0.006080210208892822
1708009843029543400,21.81154345703125,0.02367877960205078,0.001183096319437027,-0.0012415200471878052
1708009843048099000,21.83009912109375,0.02367877960205078,0.0012607946991920471,-0.008447542786598206
1708009843066654700,21.84865478515625,0.030861854553222656,-0.0008327625691890717,-0.013181820511817932
1708009843085210000,21.867210205078123,0.028469085693359375,-0.0008118301630020142,-0.008302062749862671
1708009843103765800,21.885765869140624,0.03325843811035156,0.010955236852169037,0.008450791239738464
1708009843122321400,21.9043212890625,0.0212860107421875,-0.0033831484615802765,-0.001186087727546692
1708009843140877000,21.922876953125,0.028466224670410156,-0.0011585094034671783,0.001160353422164917
1708009843159432400,21.941432373046876,0.03086376190185547,0.0012570656836032867,-0.0010686367750167847
1708009843177988000,21.959988037109376,0.03086566925048828,0.0037676431238651276,0.008543476462364197
1708009843196543700,21.978543701171876,0.02637767791748047,0.003774460405111313,0.011019974946975708
1708009843215099100,21.99709912109375,0.026081085205078125,0.01577790081501007,-0.010344326496124268
1708009843233654800,22.01565478515625,0.0356597900390625,0.015933357179164886,-0.005484715104103088
1708009843252210400,22.03421044921875,0.030869483947753906,0.003988135606050491,-0.01281285285949707
1708009843270766000,22.05276611328125,0.021294593811035156,0.01374053955078125,-0.005605801939964294
1708009843289321500,22.071321533203125,0.030870437622070312,-0.005471576005220413,-0.012808576226234436
1708009843307877000,22.089877197265626,0.018898963928222656,0.0042243413627147675,-0.005711644887924194
1708009843326432800,22.108432861328126,0.0356597900390625,-0.002582237124443054,-0.012795031070709229
1708009843344988200,22.12698828125,0.0356597900390625,-0.009732939302921295,0.0039526671171188354
1708009843363543800,22.145543701171874,0.03566265106201172,-0.00962427631020546,-0.005533650517463684
1708009843382099500,22.164099365234375,0.042847633361816406,0.009266797453165054,-0.010158494114875793
1708009843400654800,22.18265478515625,0.03327178955078125,0.002504900097846985,0.004215598106384277
1708009843419210500,22.20121044921875,0.03566551208496094,-0.009311329573392868,0.001794382929801941
1708009843437766100,22.21976611328125,0.042847633361816406,0.007092766463756561,0.011321336030960083
1708009843456321800,22.23832177734375,0.026088714599609375,0.004805445671081543,-0.005426391959190369
1708009843474877200,22.256877197265624,0.026090621948242188,0.004906374961137772,-0.002961099147796631
1708009843493432800,22.275432861328124,0.028783798217773438,-0.007190294563770294,0.009034305810928345
1708009843511988500,22.293988525390624,0.033270835876464844,0.0023446008563041687,0.0017238110303878784
1708009843530544000,22.312544189453124,0.03327369689941406,0.004811156541109085,-0.01254214346408844
1708009843549099500,22.331099609375,0.026091575622558594,0.004777152091264725,-0.012495145201683044
1708009843567655200,22.3496552734375,0.02130413055419922,0.014326293021440506,-0.0004584193229675293
1708009843586210800,22.3682109375,0.028484344482421875,0.002417154610157013,-0.005333840847015381
