time,seconds_elapsed,z,y,x
1708009821522055400,0.304055419921875,9.838089942932129,-0.06400800496339798,-0.17706887423992157
1708009821540610800,0.32261083984375,9.859625816345215,-0.07238288223743439,-0.1495514214038849
1708009821559166200,0.341166259765625,9.840482711791992,-0.08075776696205139,-0.1746760457754135
1708009821577721300,0.359721435546875,9.839286804199219,-0.06041877344250679,-0.21296121180057526
1708009821596277000,0.378277099609375,9.832108497619629,-0.07477571070194244,-0.19262222945690155
1708009821614832000,0.39683203125,9.835099220275879,-0.11665010452270508,-0.137587308883667
1708009821633387500,0.415387451171875,9.842277526855469,-0.09032905846834183,-0.1459621787071228
1708009821651943000,0.43394287109375,9.841679573059082,-0.0849452018737793,-0.18783657252788544
1708009821670498300,0.452498291015625,9.838089942932129,-0.10289137065410614,-0.1902294009923935
1708009821689053700,0.4710537109375,9.853045463562012,-0.09690931439399719,-0.13160525262355804
1708009821707608800,0.48960888671875,9.847063064575195,-0.11066804826259613,-0.12921242415905
1708009821726164500,0.50816455078125,9.828518867492676,-0.10707881301641464,-0.17347964644432068
1708009821744719600,0.5267197265625,9.838089942932129,-0.06400800496339798,-0.18544375896453857
1708009821763275000,0.54527490234375,9.836894035339355,-0.0687936544418335,-0.16271193325519562
1708009821781830400,0.563830322265625,9.847063064575195,-0.07118647545576096,-0.13280165195465088
1708009821800385800,0.5823857421875,9.841679573059082,-0.047258246690034866,-0.1579262912273407
1708009821818941200,0.600941162109375,9.851250648498535,-0.03170489892363548,-0.18305093050003052
1708009821837496600,0.61949658203125,9.841679573059082,-0.06400800496339798,-0.18544375896453857
1708009821856052000,0.638052001953125,9.839286804199219,-0.06759724020957947,-0.16390834748744965
1708009821874607000,0.656607177734375,9.828518867492676,-0.054436713457107544,-0.18903298676013947
1708009821893162500,0.67516259765625,9.80937671661377,-0.06640082597732544,-0.20458634197711945
1708009821911718000,0.6937177734375,9.811769485473633,-0.03768695518374443,-0.1621137410402298
1708009821930273300,0.712273193359375,9.8267240524292,-0.06640082597732544,-0.12921242415905
1708009821948828700,0.73082861328125,9.835099220275879,-0.1178465187549591,-0.1423729509115219
1708009821967384000,0.749384033203125,9.854840278625488,-0.07417750358581543,-0.1950150430202484
1708009821985939200,0.767939208984375,9.889535903930664,-0.06580262631177902,-0.16331014037132263
1708009822004494600,0.78649462890625,9.836296081542969,-0.17587246000766754,-0.13160525262355804
1708009822023050000,0.805050048828125,9.848857879638672,-0.08195417374372482,-0.15074782073497772
1708009822041605400,0.82360546875,9.856036186218262,-0.048454657196998596,-0.18544375896453857
1708009822060160800,0.842160888671875,9.803394317626953,-0.1621137410402298,-0.18544375896453857
1708009822078716200,0.860716064453125,9.812965393066406,-0.08793623000383377,-0.1543370634317398
1708009822097271300,0.879271240234375,9.838089942932129,-0.024526432156562805,-0.16869398951530457
1708009822115826700,0.89782666015625,9.818947792053223,-0.14835500717163086,-0.1746760457754135
1708009822134382000,0.916382080078125,9.848857879638672,-0.09571290761232376,-0.19262222945690155
1708009822152937500,0.9349375,9.857233047485352,0.022133609279990196,-0.17706887423992157
1708009822171492900,0.953492919921875,9.836296081542969,-0.08075776696205139,-0.14117653667926788
1708009822190048000,0.972048095703125,9.818349838256836,-0.11904292553663254,-0.15314064919948578
1708009822208603400,0.990603271484375,9.848857879638672,0.020937198773026466,-0.16869398951530457
1708009822227158800,1.00915869140625,9.844072341918945,-0.046061836183071136,-0.16510476171970367
1708009822245714200,1.027714111328125,9.824331283569336,-0.12801600992679596,-0.15314064919948578
1708009822264269600,1.04626953125,9.841679573059082,-0.05802594870328903,-0.16869398951530457
1708009822282825000,1.064824951171875,9.82373332977295,-0.03768695518374443,-0.18424734473228455
1708009822301380000,1.083380126953125,9.81236743927002,-0.12622138857841492,-0.1698904037475586
1708009822319935500,1.101935546875,9.829116821289062,-0.1010967567563057,-0.13998012244701385
1708009822338491000,1.120490966796875,9.843474388122559,-0.06161518394947052,-0.15672987699508667
1708009822357046300,1.13904638671875,9.850054740905762,-0.09212367236614227,-0.18783657252788544
1708009822375601700,1.1576015625,9.846465110778809,-0.11485548317432404,-0.17108681797981262
1708009822394157000,1.176156982421875,9.854840278625488,-0.09690931439399719,-0.16271193325519562
1708009822412712200,1.194712158203125,9.845867156982422,-0.08973085135221481,-0.15672987699508667
1708009822431267600,1.213267578125,9.828518867492676,-0.15314064919948578,-0.18065811693668365
1708009822449823000,1.231822998046875,9.81535816192627,-0.06999006122350693,-0.17587246000766754
1708009822468378400,1.25037841796875,9.866804122924805,-0.061016976833343506,-0.1543370634317398
1708009822486933800,1.268933837890625,9.81535816192627,-0.08434699475765228,-0.18903298676013947
1708009822505489000,1.287489013671875,9.89133071899414,0.1453639715909958,-0.21595224738121033
1708009822524044300,1.306044189453125,9.840482711791992,0.04127619042992592,-0.18544375896453857
1708009822542599700,1.324599609375,9.841081619262695,0.04127619042992592,-0.0771685317158699
1708009822561155000,1.343155029296875,9.885348320007324,0.10468599200248718,-0.05024927482008934
1708009822579710500,1.36171044921875,9.88833999633789,0.24825534224510193,-0.11246266216039658
1708009822598265900,1.380265869140625,9.913464546203613,0.32961133122444153,-0.14656038582324982
1708009822616821000,1.398821044921875,9.90987491607666,0.3439682424068451,-0.13280165195465088
1708009822635376400,1.41737646484375,9.944570541381836,0.10229317098855972,-0.1417747437953949
1708009822653931800,1.435931884765625,9.952347755432129,0.14835500717163086,-0.19561325013637543
1708009822672487200,1.454487060546875,9.93380355834961,0.36191442608833313,-0.2721835672855377
1708009822691042300,1.473042236328125,9.921838760375977,0.2991028428077698,-0.4486542344093323
1708009822709597700,1.49159765625,9.92423152923584,0.7310073375701904,-0.4307080805301666
1708009822728153000,1.510153076171875,9.850054740905762,1.0689935684204102,-0.26919254660606384
1708009822746708500,1.52870849609375,9.759725570678711,1.1467602252960205,-0.2105683982372284
1708009822765264000,1.547263916015625,9.65683364868164,1.461416482925415,-0.2602194547653198
1708009822783819300,1.5658193359375,9.54078197479248,1.3663017749786377,-0.14895321428775787
1708009822802374400,1.58437451171875,9.516854286193848,0.615553617477417,0.09930214285850525
1708009822820929800,1.6029296875,9.624530792236328,0.47676992416381836,0.24586252868175507
1708009822839485200,1.621485107421875,9.888937950134277,0.3762713670730591,0.23688943684101105
1708009822858040600,1.64004052734375,9.90688419342041,0.09511470049619675,0.04247260093688965
1708009822876595700,1.658595703125,10.019346237182617,-0.18065811693668365,-0.059820566326379776
1708009822895151000,1.677151123046875,10.12463092803955,-0.44386860728263855,-0.3762713670730591
1708009822913706500,1.69570654296875,10.01874828338623,-0.29312077164649963,-0.4546363055706024
1708009822932262000,1.714261962890625,10.112068176269531,0.22133609652519226,-0.4654040038585663
1708009822950817300,1.7328173828125,9.92423152923584,0.30508488416671753,-0.24107688665390015
1708009822969372400,1.751372314453125,9.79262638092041,0.8297112584114075,-0.12442677468061447
1708009822987927800,1.769927734375,9.619147300720215,0.8135597109794617,-0.15912270545959473
1708009823006483200,1.788483154296875,9.523433685302734,0.8452646136283875,0.08195417374372482
1708009823025038600,1.80703857421875,9.601201057434082,0.9852447509765625,0.0771685317158699
1708009823043594000,1.825593994140625,9.541379928588867,0.49292147159576416,0.1136590763926506
1708009823062149400,1.8441494140625,9.821938514709473,0.24945175647735596,-0.22492532432079315
1708009823080704500,1.86270458984375,9.841081619262695,0.24586252868175507,-0.20458634197711945
1708009823099260000,1.881260009765625,10.129416465759277,0.020338991656899452,-0.11425728350877762
1708009823117815300,1.899815185546875,10.109077453613281,-0.259621262550354,-0.18065811693668365
1708009823136370700,1.91837060546875,10.137192726135254,0.20817556977272034,-0.3720839321613312
1708009823154925800,1.93692578125,9.941579818725586,0.2955136001110077,-0.3445664644241333
1708009823173481500,1.9554814453125,9.799206733703613,-0.19202402234077454,-0.11306086927652359
1708009823192036600,1.97403662109375,9.717850685119629,0.5545366406440735,-0.09092725813388824
1708009823210592000,1.992592041015625,9.490532875061035,0.6358926296234131,-0.3433700501918793
1708009823230858800,2.012858642578125,9.19561767578125,0.7088736891746521,-0.37447673082351685
1708009823249414100,2.0314140625,9.436694145202637,0.5264210104942322,-0.035892341285943985
1708009823267969300,2.04996923828125,9.844072341918945,0.6011967062950134,0.16809579730033875
1708009823286524700,2.068524658203125,9.64367389678955,-0.29850462079048157,0.11844471842050552
1708009823305080000,2.087080078125,10.026525497436523,0.06580262631177902,-0.025722842663526535
1708009823323635500,2.105635498046875,10.01874828338623,-0.18065811693668365,-0.45104706287384033
1708009823342190800,2.12419091796875,9.990034103393555,-0.5156532526016235,-0.7058826684951782
1708009823360746000,2.14274609375,10.189236640930176,-0.3002992272377014,-0.25304099917411804
1708009823379301400,2.16130126953125,10.156335830688477,-0.745364248752594,0.3397808074951172
1708009823397856800,2.179856689453125,10.043274879455566,-0.4462614357471466,0.24047867953777313
1708009823416412200,2.198412109375,10.04148006439209,0.2763710021972656,-0.20578274130821228
1708009823434967600,2.216967529296875,9.597013473510742,0.2638086974620819,-0.3008974492549896
1708009823453522700,2.235522705078125,9.631111145019531,-0.14297115802764893,-0.23210379481315613
1708009823472078000,2.254078125,9.717850685119629,0.4145565330982208,-0.16510476171970367
1708009823490633500,2.272633544921875,9.574281692504883,0.2925225794315338,-0.4498506486415863
1708009823509188900,2.29118896484375,9.698110580444336,0.0891326442360878,-0.20578274130821228
1708009823527744300,2.309744140625,9.960722923278809,0.03170489892363548,0.05623133108019829
1708009823546299600,2.328299560546875,9.81954574584961,-0.16689938306808472,0.03768695518374443
1708009823564854800,2.346854736328125,9.853045463562012,-0.18843477964401245,-0.2267199456691742
1708009823583410200,2.36541015625,9.783055305480957,-0.17647066712379456,-0.40378883481025696
1708009823601965600,2.383965576171875,9.843474388122559,-0.3409772217273712,-0.28175488114356995
1708009823620521000,2.40252099609375,9.982257843017578,-0.21176479756832123,-0.4815555512905121
1708009823639076000,2.421076171875,9.90149974822998,0.24287149310112,-0.4785645306110382
1708009823657631500,2.439631591796875,9.873384475708008,0.19740787148475647,-0.061016976833343506
1708009823676187000,2.458186767578125,9.78544807434082,-0.5832505226135254,0.17946170270442963
1708009823694742300,2.4767421875,9.714859962463379,0.23270200192928314,0.04127619042992592
1708009823713297700,2.495297607421875,9.88415241241455,0.34576287865638733,-0.5096712112426758
1708009823731852800,2.513852783203125,9.386445045471191,-0.5353940725326538,-0.18484555184841156
1708009823750408200,2.532408203125,9.704092025756836,-0.11425728350877762,0.20937198400497437
1708009823768963600,2.550963623046875,9.707681655883789,-0.8009973764419556,0.02871387079358101
1708009823787519000,2.56951904296875,9.535996437072754,-0.9014959335327148,-0.20578274130821228
1708009823806074400,2.588074462890625,9.696913719177246,-0.5784648656845093,-0.4223332107067108
1708009823824629800,2.606629638671875,9.938589096069336,-0.25004997849464417,0.015553346835076809
1708009823843185000,2.625184814453125,9.873982429504395,-1.0923235416412354,-0.07417750358581543
1708009823861740300,2.643740234375,9.959526062011719,-0.3840480446815491,-0.07597211748361588
1708009823880295700,2.662295654296875,9.937990188598633,-0.30508488416671753,-0.388235479593277
1708009823898851000,2.68085107421875,10.026525497436523,-0.7836494445800781,-0.06041877344250679
1708009823917406500,2.699406494140625,9.877572059631348,-0.9918249845504761,0.07058826833963394
1708009823935961600,2.717961669921875,10.01874828338623,-0.3194418251514435,-0.09571290761232376
1708009823954517000,2.73651708984375,9.65683364868164,-0.9367900490760803,-0.39840495586395264
1708009823973072400,2.755072265625,9.710074424743652,-1.303490161895752,-0.3032902777194977
1708009823991627800,2.773627685546875,9.981659889221191,-0.900897741317749,-0.0023928226437419653
1708009824010183200,2.79218310546875,10.076175689697266,-0.8482556343078613,-0.13280165195465088
1708009824028738600,2.810738525390625,9.754341125488281,-1.0133603811264038,-0.4019941985607147
1708009824047293700,2.829293701171875,10.024730682373047,-0.5659025311470032,-0.5258227586746216
1708009824065849000,2.84784912109375,9.718449592590332,-0.5641079545021057,-0.09391828626394272
1708009824084404500,2.866404541015625,9.814162254333496,-0.6382854580879211,-0.04905286431312561
1708009824102959900,2.8849599609375,9.759725570678711,-0.23629122972488403,0.02632104977965355
1708009824121515300,2.903515380859375,9.7005033493042,-0.5156532526016235,-0.26620152592658997
1708009824140070400,2.9220703125,9.812965393066406,-0.1908276081085205,-0.18305093050003052
1708009824158625800,2.940625732421875,9.809974670410156,-0.6957131624221802,-0.005982056725770235
1708009824177181200,2.95918115234375,9.874580383300781,-0.6095715761184692,0.02512463741004467
1708009824195736600,2.977736572265625,9.896116256713867,-0.3002992272377014,-0.23688943684101105
1708009824214292000,2.9962919921875,9.948160171508789,-0.3290131092071533,-0.29730820655822754
1708009824232847400,3.014847412109375,9.854840278625488,-0.6191428303718567,-0.003589233849197626
1708009824251402500,3.033402587890625,9.876375198364258,-0.8129615187644958,-0.08075776696205139
1708009824269958000,3.0519580078125,9.757332801818848,-0.5563312768936157,-0.3320041298866272
1708009824288513300,3.07051318359375,9.853045463562012,-0.40797626972198486,-0.5389832854270935
1708009824307068700,3.089068603515625,9.886545181274414,-0.5617151260375977,-0.2512463629245758
1708009824325624000,3.1076240234375,9.829116821289062,-0.7100701332092285,0.06640082597732544
1708009824344179200,3.12617919921875,9.807581901550293,-0.5539384484291077,-0.25004997849464417
1708009824362734600,3.144734619140625,9.747162818908691,-0.47976094484329224,-0.6436693072319031
1708009824381290000,3.1632900390625,9.77826976776123,-0.35054850578308105,-0.34576287865638733
1708009824399845400,3.181845458984375,9.854242324829102,-0.5156532526016235,0.17228323221206665
1708009824418400800,3.20040087890625,9.839286804199219,-0.6167500615119934,0.13160525262355804
1708009824436956200,3.2189560546875,9.790233612060547,-0.5300102233886719,-0.2883351147174835
1708009824455511300,3.23751123046875,9.841081619262695,-0.17168502509593964,-0.2356930375099182
1708009824474066700,3.256066650390625,9.845867156982422,-0.5880361795425415,0.08315058797597885
1708009824492622000,3.2746220703125,9.808777809143066,-0.5228317379951477,0.17228323221206665
1708009824511177500,3.293177490234375,9.865608215332031,-0.17168502509593964,-0.137587308883667
1708009824529732900,3.31173291015625,9.839286804199219,-0.2021935135126114,-0.15672987699508667
1708009824548288300,3.330288330078125,9.769296646118164,-0.47976094484329224,0.031106693670153618
1708009824566843600,3.34884375,9.855438232421875,-0.1788634955883026,0.025722842663526535
1708009824585398800,3.367398681640625,9.79262638092041,-0.18783657252788544,-0.30508488416671753
1708009824603954200,3.3859541015625,9.818349838256836,-0.1543370634317398,-0.39421752095222473
1708009824622509600,3.404509521484375,9.879964828491211,-0.2356930375099182,-0.137587308883667
1708009824641065000,3.42306494140625,9.871589660644531,-0.3361915946006775,-0.05623133108019829
1708009824659620400,3.441620361328125,9.832706451416016,-0.35054850578308105,-0.37028929591178894
1708009824678175700,3.46017578125,9.824331283569336,-0.08015955984592438,-0.5629115104675293
1708009824696731000,3.47873095703125,9.869196891784668,-0.049651071429252625,-0.3080759048461914
1708009824715286300,3.497286376953125,9.857233047485352,-0.16689938306808472,-0.0005982056609354913
1708009824733841700,3.515841552734375,9.846465110778809,0.06759724020957947,-0.12323036789894104
1708009824752397000,3.53439697265625,9.794421195983887,0.37866419553756714,-0.37447673082351685
1708009824770952400,3.552952392578125,9.783653259277344,0.2925225794315338,-0.2183450609445572
1708009824789507800,3.5715078125,9.795618057250977,-0.06400800496339798,0.07178468257188797
1708009824808063200,3.590063232421875,9.793225288391113,0.010169495828449726,0.031106693670153618
1708009824826618400,3.608618408203125,9.80518913269043,0.06999006122350693,-0.2667997181415558
1708009824845173800,3.627173828125,9.714262008666992,-0.006580262444913387,-0.2709871530532837
1708009824863729200,3.645729248046875,9.847661972045898,-0.05922235921025276,-0.029312077909708023
1708009824882284500,3.664284423828125,9.850054740905762,-0.11425728350877762,0.01136590726673603
1708009824900840000,3.68283984375,9.88415241241455,0.129810631275177,-0.25064817070961
1708009824919395300,3.701395263671875,9.88833999633789,0.0771685317158699,-0.29850462079048157
1708009824937950700,3.71995068359375,9.864411354064941,-0.030508488416671753,-0.010169495828449726
1708009824956506000,3.738506103515625,9.849455833435059,-0.047258246690034866,-0.07776673883199692
1708009824975061200,3.757061279296875,9.81236743927002,0.09631111472845078,-0.25004997849464417
1708009824993616600,3.77561669921875,9.8267240524292,0.23748764395713806,-0.22612173855304718
1708009825012172000,3.794172119140625,9.795019149780273,0.005383851006627083,-0.031106693670153618
1708009825030727400,3.8127275390625,9.81954574584961,-0.01375873014330864,0.064606212079525
1708009825049282800,3.83128271484375,9.79083251953125,0.06759724020957947,-0.2189432680606842
1708009825067838200,3.849838134765625,9.78544807434082,0.21595224738121033,-0.29730820655822754
1708009825086393600,3.8683935546875,9.80817985534668,-0.03768695518374443,-0.1657029688358307
1708009825104949000,3.886948974609375,9.837491989135742,-0.11904292553663254,-0.050847481936216354
1708009825123504400,3.90550439453125,9.872187614440918,-0.03529413416981697,-0.19740787148475647
1708009825142059500,3.9240595703125,9.847063064575195,-0.018544375896453857,-0.35832518339157104
1708009825160615000,3.942614990234375,9.846465110778809,-0.049651071429252625,-0.18065811693668365
1708009825179170300,3.96117041015625,9.880562782287598,0.026919255033135414,-0.05623133108019829
1708009825197725700,3.9797255859375,9.8267240524292,0.0029910283628851175,-0.19980068504810333
1708009825216281000,3.998281005859375,9.752547264099121,-0.01136590726673603,-0.29012975096702576
1708009825234836500,4.01683642578125,9.848259925842285,0.20877377688884735,-0.15912270545959473
1708009825253392000,4.035391845703125,9.826126098632812,-0.006580262444913387,0.001794616924598813
1708009825271947300,4.053947265625,9.792028427124023,-0.06161518394947052,-0.07238288223743439
1708009825290502700,4.072502685546875,9.8267240524292,0.15613168478012085,-0.2476571500301361
1708009825309057800,4.091057861328125,9.832108497619629,0.10827522724866867,-0.15134602785110474
1708009825327613200,4.10961328125,9.8207426071167,-0.15732808411121368,-0.06041877344250679
1708009825346168600,4.12816845703125,9.882357597351074,0.048454657196998596,-0.09212367236614227
1708009825364724000,4.146723876953125,9.838089942932129,0.06999006122350693,-0.27397820353507996
1708009825383279400,4.165279296875,9.78843879699707,-0.0975075215101242,-0.2787638306617737
1708009825401834800,4.183834716796875,9.846465110778809,0.010169495828449726,-0.13998012244701385
1708009825420390100,4.20239013671875,9.830313682556152,0.0005982056609354913,-0.12263216078281403
1708009825438945500,4.220945556640625,9.76989459991455,-0.1621137410402298,-0.2231307178735733
1708009825457501000,4.2395009765625,9.833903312683105,-0.08793623000383377,-0.23330020904541016
1708009825476056300,4.258056396484375,9.856635093688965,0.0364905446767807,-0.09870393574237823
1708009825494611700,4.27661181640625,9.825528144836426,-0.1788634955883026,-0.09152546525001526
1708009825513167000,4.2951669921875,9.817750930786133,-0.11665010452270508,-0.15672987699508667
1708009825531722200,4.31372216796875,9.844072341918945,0.024526432156562805,-0.1782652884721756
1708009825550277600,4.332277587890625,9.810572624206543,-0.15732808411121368,-0.12741780281066895
1708009825568833000,4.3508330078125,9.818349838256836,-0.18364913761615753,-0.11066804826259613
1708009825587388400,4.369388427734375,9.834501266479492,-0.0568295381963253,-0.17587246000766754
1708009825605943800,4.38794384765625,9.831509590148926,-0.13100704550743103,-0.2021935135126114
1708009825624499200,4.406499267578125,9.846465110778809,-0.1621137410402298,-0.15672987699508667
1708009825643054600,4.4250546875,9.844072341918945,-0.09032905846834183,-0.15672987699508667
1708009825661610000,4.44360986328125,9.843474388122559,-0.1453639715909958,-0.2309073805809021
1708009825680165400,4.462165283203125,9.831509590148926,-0.06400800496339798,-0.18065811693668365
1708009825698720800,4.480720703125,9.863214492797852,-0.09990034252405167,-0.10648060590028763
1708009825717276200,4.499276123046875,9.818349838256836,-0.13579268753528595,-0.08673982322216034
1708009825735831300,4.517831298828125,9.817750930786133,-0.10229317098855972,-0.19980068504810333
1708009825754387000,4.536386962890625,9.817152976989746,-0.028115665540099144,-0.22851456701755524
1708009825772942000,4.554942138671875,9.820143699645996,-0.07836493849754333,-0.12801600992679596
1708009825791497500,4.57349755859375,9.81117057800293,-0.10707881301641464,-0.0771685317158699
1708009825810052900,4.592052978515625,9.834501266479492,-0.03768695518374443,-0.1423729509115219
1708009825828608300,4.610608154296875,9.821938514709473,-0.047258246690034866,-0.25004997849464417
1708009825847163600,4.62916357421875,9.820143699645996,-0.04486542567610741,-0.19980068504810333
1708009825865719000,4.647718994140625,9.841679573059082,-0.09032905846834183,-0.1543370634317398
1708009825884274400,4.6662744140625,9.829715728759766,-0.0687936544418335,-0.1423729509115219
1708009825902829800,4.684829833984375,9.834501266479492,-0.052043892443180084,-0.18783657252788544
1708009825921385200,4.70338525390625,9.827322959899902,-0.047258246690034866,-0.1902294009923935
1708009825939940600,4.721940673828125,9.835099220275879,-0.07357929646968842,-0.14476576447486877
1708009825958496000,4.74049609375,9.81356430053711,-0.07118647545576096,-0.15134602785110474
1708009825977051400,4.759051513671875,9.824930191040039,-0.03768695518374443,-0.17347964644432068
1708009825995606800,4.777606689453125,9.832108497619629,-0.09032905846834183,-0.137587308883667
1708009826014162200,4.796162109375,9.827920913696289,-0.12143574655056,-0.10408778488636017
1708009826032717600,4.814717529296875,9.842277526855469,-0.08793623000383377,-0.13998012244701385
1708009826051272700,4.833272705078125,9.827322959899902,-0.05922235921025276,-0.1950150430202484
1708009826069828400,4.851828369140625,9.829715728759766,-0.09032905846834183,-0.18305093050003052
1708009826088383500,4.870383544921875,9.832706451416016,-0.0975075215101242,-0.13519448041915894
1708009826106939000,4.88893896484375,9.837491989135742,-0.09990034252405167,-0.1423729509115219
1708009826125494300,4.907494384765625,9.821938514709473,-0.09032905846834183,-0.19262222945690155
1708009826144049700,4.926049560546875,9.829116821289062,-0.07357929646968842,-0.19740787148475647
1708009826162605000,4.94460498046875,9.824930191040039,-0.08315058797597885,-0.16331014037132263
1708009826181160400,4.963160400390625,9.824930191040039,-0.0975075215101242,-0.1537388563156128
1708009826199715800,4.9817158203125,9.834501266479492,-0.0568295381963253,-0.17587246000766754
1708009826218271200,5.000271240234375,9.829715728759766,-0.052043892443180084,-0.16869398951530457
1708009826236826600,5.01882666015625,9.817750930786133,-0.0687936544418335,-0.14416755735874176
1708009826255382000,5.037382080078125,9.834501266479492,-0.08315058797597885,-0.13938191533088684
1708009826273937400,5.0559375,9.812965393066406,-0.06640082597732544,-0.1704886108636856
1708009826292492800,5.074492919921875,9.827322959899902,-0.06640082597732544,-0.1657029688358307
1708009826311048200,5.093048095703125,9.822537422180176,-0.06640082597732544,-0.13220344483852386
1708009826329603600,5.111603515625,9.824930191040039,-0.09272187948226929,-0.1417747437953949
1708009826348159000,5.130158935546875,9.834501266479492,-0.06161518394947052,-0.18783657252788544
1708009826366714400,5.14871435546875,9.832108497619629,-0.054436713457107544,-0.1782652884721756
1708009826385269800,5.167269775390625,9.827322959899902,-0.08315058797597885,-0.1417747437953949
1708009826403825200,5.1858251953125,9.827322959899902,-0.10707881301641464,-0.1417747437953949
1708009826422380500,5.204380615234375,9.820143699645996,-0.07118647545576096,-0.17766708135604858
1708009826440936000,5.22293603515625,9.807581901550293,-0.054436713457107544,-0.21176479756832123
1708009826459491300,5.2414912109375,9.824930191040039,-0.0975075215101242,-0.16869398951530457
1708009826478046700,5.260046630859375,9.829715728759766,-0.09511470049619675,-0.12502498924732208
1708009826496602000,5.27860205078125,9.836894035339355,-0.08554340898990631,-0.14715859293937683
1708009826515157500,5.297157470703125,9.829715728759766,-0.0687936544418335,-0.18544375896453857
1708009826533712600,5.315712646484375,9.824930191040039,-0.0687936544418335,-0.1704886108636856
1708009826552268300,5.334268310546875,9.822537422180176,-0.08554340898990631,-0.14895321428775787
1708009826570823400,5.352823486328125,9.829715728759766,-0.07836493849754333,-0.1585244983434677
1708009826589379000,5.371379150390625,9.817750930786133,-0.06400800496339798,-0.16331014037132263
1708009826607934200,5.389934326171875,9.824930191040039,-0.07118647545576096,-0.1585244983434677
1708009826626489900,5.40848974609375,9.827322959899902,-0.07597211748361588,-0.1417747437953949
1708009826645045000,5.427044921875,9.829715728759766,-0.08315058797597885,-0.16869398951530457
1708009826663600400,5.445600341796875,9.829116821289062,-0.0687936544418335,-0.1950150430202484
1708009826682155800,5.46415576171875,9.829715728759766,-0.06640082597732544,-0.1585244983434677
1708009826700711200,5.482711181640625,9.834501266479492,-0.08075776696205139,-0.13459627330303192
1708009826719266600,5.5012666015625,9.827322959899902,-0.08554340898990631,-0.15613168478012085
1708009826737822000,5.519822021484375,9.820143699645996,-0.06400800496339798,-0.18305093050003052
1708009826756377300,5.53837744140625,9.829715728759766,-0.054436713457107544,-0.1782652884721756
1708009826774932700,5.5569326171875,9.820143699645996,-0.10229317098855972,-0.14416755735874176
1708009826793488100,5.575488037109375,9.827322959899902,-0.08793623000383377,-0.13459627330303192
1708009826812043500,5.59404345703125,9.836894035339355,-0.05922235921025276,-0.1782652884721756
1708009826830599000,5.612598876953125,9.820143699645996,-0.08075776696205139,-0.17766708135604858
1708009826849154300,5.631154296875,9.822537422180176,-0.09511470049619675,-0.1537388563156128
1708009826867709700,5.649709716796875,9.829715728759766,-0.08315058797597885,-0.1417747437953949
1708009826886265000,5.66826513671875,9.834501266479492,-0.07836493849754333,-0.17587246000766754
1708009826904820500,5.686820556640625,9.824930191040039,-0.07836493849754333,-0.18305093050003052
1708009826923375900,5.7053759765625,9.829715728759766,-0.08554340898990631,-0.15613168478012085
1708009826941931300,5.72393115234375,9.827322959899902,-0.08315058797597885,-0.14895321428775787
1708009826960486700,5.742486572265625,9.817750930786133,-0.08793623000383377,-0.16331014037132263
1708009826979042000,5.7610419921875,9.81954574584961,-0.06161518394947052,-0.17527425289154053
1708009826997597400,5.779597412109375,9.824930191040039,-0.07836493849754333,-0.15134602785110474
1708009827016152800,5.79815283203125,9.822537422180176,-0.07836493849754333,-0.13459627330303192
1708009827034708200,5.816708251953125,9.827322959899902,-0.06640082597732544,-0.16091732680797577
1708009827053263600,5.835263671875,9.831509590148926,-0.06640082597732544,-0.17527425289154053
1708009827071819000,5.853819091796875,9.832108497619629,-0.08315058797597885,-0.15134602785110474
1708009827090374700,5.872374755859375,9.844072341918945,-0.0975075215101242,-0.13938191533088684
1708009827108929800,5.8909296875,9.821938514709473,-0.07118647545576096,-0.1704886108636856
1708009827127485200,5.909485107421875,9.817152976989746,-0.05922235921025276,-0.17527425289154053
1708009827146040600,5.92804052734375,9.805787086486816,-0.08075776696205139,-0.16331014037132263
1708009827164596000,5.946595947265625,9.80817985534668,-0.06640082597732544,-0.14656038582324982
1708009827183151600,5.965151611328125,9.822537422180176,-0.049651071429252625,-0.15613168478012085
1708009827201706800,5.983706787109375,9.8267240524292,-0.08793623000383377,-0.17766708135604858
1708009827220262400,6.002262451171875,9.836296081542969,-0.07357929646968842,-0.16809579730033875
1708009827238817500,6.020817626953125,9.846465110778809,-0.08793623000383377,-0.14895321428775787
1708009827257373200,6.039373291015625,9.836296081542969,-0.10468599200248718,-0.17108681797981262
1708009827275928600,6.057928466796875,9.831509590148926,-0.07357929646968842,-0.17766708135604858
1708009827294484000,6.07648388671875,9.827322959899902,-0.0687936544418335,-0.16091732680797577
1708009827313039400,6.095039306640625,9.812965393066406,-0.09990034252405167,-0.13938191533088684
1708009827331594800,6.1135947265625,9.820143699645996,-0.07118647545576096,-0.15134602785110474
1708009827350150100,6.132150146484375,9.814760208129883,-0.05922235921025276,-0.16809579730033875
1708009827368705500,6.15070556640625,9.8267240524292,-0.07836493849754333,-0.1585244983434677
1708009827387261000,6.169260986328125,9.829715728759766,-0.08554340898990631,-0.15134602785110474
1708009827405816300,6.18781640625,9.833903312683105,-0.08075776696205139,-0.16091732680797577
1708009827424371700,6.206371826171875,9.814760208129883,-0.05922235921025276,-0.17288143932819366
1708009827442927000,6.224927001953125,9.817152976989746,-0.0687936544418335,-0.16091732680797577
1708009827461482500,6.243482421875,9.834501266479492,-0.08315058797597885,-0.1537388563156128
1708009827480038000,6.262037841796875,9.824331283569336,-0.0687936544418335,-0.17766708135604858
1708009827498593300,6.28059326171875,9.817152976989746,-0.06640082597732544,-0.18963119387626648
1708009827517148700,6.299148681640625,9.81954574584961,-0.08315058797597885,-0.17527425289154053
1708009827535704000,6.3177041015625,9.822537422180176,-0.08315058797597885,-0.129810631275177
1708009827554259500,6.336259521484375,9.820143699645996,-0.09511470049619675,-0.1417747437953949
1708009827572814800,6.35481494140625,9.824331283569336,-0.06161518394947052,-0.16809579730033875
1708009827591370200,6.373370361328125,9.817152976989746,-0.06400800496339798,-0.18005990982055664
1708009827609925600,6.391925537109375,9.821938514709473,-0.08315058797597885,-0.1537388563156128
1708009827628481000,6.41048095703125,9.824930191040039,-0.09990034252405167,-0.13459627330303192
1708009827647036400,6.429036376953125,9.832108497619629,-0.06400800496339798,-0.1537388563156128
1708009827665591800,6.447591796875,9.821938514709473,-0.08315058797597885,-0.1824527233839035
1708009827684147200,6.466147216796875,9.829116821289062,-0.054436713457107544,-0.15613168478012085
1708009827702702600,6.48470263671875,9.820143699645996,-0.09511470049619675,-0.14895321428775787
1708009827721258200,6.50325830078125,9.817152976989746,-0.09990034252405167,-0.16809579730033875
1708009827739813600,6.521813720703125,9.822537422180176,-0.03768695518374443,-0.16809579730033875
1708009827758369000,6.540369140625,9.824930191040039,-0.11425728350877762,-0.16809579730033875
1708009827776924400,6.55892431640625,9.827322959899902,-0.08075776696205139,-0.1417747437953949
1708009827795479800,6.577479736328125,9.834501266479492,-0.07357929646968842,-0.16390834748744965
1708009827814035200,6.59603515625,9.832108497619629,-0.07836493849754333,-0.1704886108636856
1708009827832590600,6.614590576171875,9.810572624206543,-0.07118647545576096,-0.16091732680797577
1708009827851146000,6.63314599609375,9.832108497619629,-0.06400800496339798,-0.14895321428775787
1708009827869701400,6.651701416015625,9.81535816192627,-0.09511470049619675,-0.1657029688358307
1708009827888256800,6.6702568359375,9.829715728759766,-0.0687936544418335,-0.16809579730033875
1708009827906812200,6.688812255859375,9.829715728759766,-0.06161518394947052,-0.14656038582324982
1708009827925367600,6.707367431640625,9.829715728759766,-0.10229317098855972,-0.15613168478012085
1708009827943923000,6.7259228515625,9.821938514709473,-0.09032905846834183,-0.1657029688358307
1708009827962478300,6.744478271484375,9.8267240524292,-0.05922235921025276,-0.1824527233839035
1708009827981033700,6.76303369140625,9.824331283569336,-0.08315058797597885,-0.1704886108636856
1708009827999589400,6.78158935546875,9.827322959899902,-0.09511470049619675,-0.13220344483852386
1708009828018144800,6.800144775390625,9.832108497619629,-0.09032905846834183,-0.13698910176753998
1708009828036700200,6.8187001953125,9.8267240524292,-0.06400800496339798,-0.1657029688358307
1708009828055255600,6.837255615234375,9.817152976989746,-0.07597211748361588,-0.19680966436862946
1708009828073811000,6.85581103515625,9.824331283569336,-0.0687936544418335,-0.16809579730033875
1708009828092366300,6.874366455078125,9.836894035339355,-0.07836493849754333,-0.14656038582324982
1708009828110921700,6.892921630859375,9.820143699645996,-0.08554340898990631,-0.13698910176753998
1708009828129477000,6.91147705078125,9.824331283569336,-0.06161518394947052,-0.16091732680797577
1708009828148032500,6.930032470703125,9.821938514709473,-0.07836493849754333,-0.1944168359041214
1708009828166588000,6.948587890625,9.829116821289062,-0.07597211748361588,-0.17527425289154053
1708009828185143300,6.967143310546875,9.824930191040039,-0.08075776696205139,-0.1417747437953949
1708009828203698700,6.98569873046875,9.824930191040039,-0.07357929646968842,-0.13938191533088684
1708009828222254300,7.00425439453125,9.824331283569336,-0.08315058797597885,-0.16809579730033875
1708009828240809700,7.022809814453125,9.824331283569336,-0.06640082597732544,-0.17766708135604858
1708009828259365000,7.041365234375,9.824331283569336,-0.0687936544418335,-0.16331014037132263
1708009828277920500,7.05992041015625,9.824331283569336,-0.08793623000383377,-0.16331014037132263
1708009828296476000,7.078475830078125,9.834501266479492,-0.0687936544418335,-0.14656038582324982
1708009828315031300,7.09703125,9.833903312683105,-0.07118647545576096,-0.16091732680797577
1708009828333586700,7.115586669921875,9.833903312683105,-0.08554340898990631,-0.17288143932819366
1708009828352142000,7.13414208984375,9.8267240524292,-0.08315058797597885,-0.16809579730033875
1708009828370697500,7.152697509765625,9.821938514709473,-0.08075776696205139,-0.16091732680797577
1708009828389252900,7.1712529296875,9.829715728759766,-0.07836493849754333,-0.14895321428775787
1708009828407808500,7.18980859375,9.81954574584961,-0.07357929646968842,-0.17527425289154053
1708009828426364000,7.208364013671875,9.821938514709473,-0.06640082597732544,-0.1704886108636856
1708009828444919300,7.226919189453125,9.8267240524292,-0.06640082597732544,-0.1704886108636856
1708009828463474700,7.245474609375,9.8267240524292,-0.07836493849754333,-0.1537388563156128
1708009828482030000,7.264030029296875,9.827322959899902,-0.09511470049619675,-0.14416755735874176
1708009828500585500,7.28258544921875,9.824331283569336,-0.06161518394947052,-0.1657029688358307
1708009828519140900,7.301140869140625,9.817152976989746,-0.07118647545576096,-0.17288143932819366
1708009828537696300,7.3196962890625,9.817152976989746,-0.09032905846834183,-0.15613168478012085
1708009828556251600,7.338251708984375,9.821938514709473,-0.07836493849754333,-0.1537388563156128
1708009828574807000,7.35680712890625,9.831509590148926,-0.07597211748361588,-0.1585244983434677
1708009828593362400,7.375362548828125,9.829116821289062,-0.08793623000383377,-0.17288143932819366
1708009828611918000,7.39391796875,9.824331283569336,-0.07357929646968842,-0.15613168478012085
1708009828630473500,7.412473388671875,9.829116821289062,-0.07836493849754333,-0.15134602785110474
1708009828649028900,7.43102880859375,9.8267240524292,-0.07597211748361588,-0.15613168478012085
1708009828667584300,7.449584228515625,9.824331283569336,-0.06161518394947052,-0.16331014037132263
1708009828686139600,7.4681396484375,9.824331283569336,-0.09511470049619675,-0.16809579730033875
1708009828704695000,7.486695068359375,9.831509590148926,-0.07836493849754333,-0.1585244983434677
1708009828723250400,7.50525048828125,9.8267240524292,-0.0568295381963253,-0.1417747437953949
1708009828741805800,7.523805908203125,9.829116821289062,-0.09511470049619675,-0.15134602785110474
1708009828760361500,7.542361572265625,9.831509590148926,-0.07357929646968842,-0.16331014037132263
1708009828778916900,7.560916748046875,9.824331283569336,-0.054436713457107544,-0.17527425289154053
1708009828797472300,7.57947216796875,9.821938514709473,-0.07597211748361588,-0.16331014037132263
1708009828816027600,7.598027587890625,9.836296081542969,-0.09990034252405167,-0.1537388563156128
1708009828834583000,7.6165830078125,9.836296081542969,-0.07118647545576096,-0.14416755735874176
1708009828853138400,7.635138427734375,9.831509590148926,-0.06640082597732544,-0.15613168478012085
1708009828871693800,7.65369384765625,9.81954574584961,-0.08315058797597885,-0.17527425289154053
1708009828890249200,7.672249267578125,9.829116821289062,-0.0687936544418335,-0.1585244983434677
1708009828908804900,7.690804931640625,9.8267240524292,-0.08075776696205139,-0.16331014037132263
1708009828927360300,7.7093603515625,9.821938514709473,-0.08554340898990631,-0.16331014037132263
1708009828945915600,7.72791552734375,9.831509590148926,-0.07836493849754333,-0.16091732680797577
1708009828964471000,7.746470947265625,9.817152976989746,-0.08075776696205139,-0.16809579730033875
1708009828983026400,7.7650263671875,9.831509590148926,-0.08554340898990631,-0.1537388563156128
1708009829001581800,7.783581787109375,9.829116821289062,-0.07836493849754333,-0.17288143932819366
1708009829020137200,7.80213720703125,9.831509590148926,-0.06400800496339798,-0.16091732680797577
1708009829038692600,7.820692626953125,9.824331283569336,-0.08315058797597885,-0.1585244983434677
1708009829057248300,7.839248291015625,9.833903312683105,-0.07597211748361588,-0.15134602785110474
1708009829075803600,7.8578037109375,9.831509590148926,-0.08075776696205139,-0.16331014037132263
1708009829094359000,7.876359130859375,9.8267240524292,-0.0687936544418335,-0.16809579730033875
1708009829112914400,7.89491455078125,9.817152976989746,-0.07836493849754333,-0.15613168478012085
1708009829131469800,7.9134697265625,9.8267240524292,-0.08315058797597885,-0.15134602785110474
1708009829150025200,7.932025146484375,9.836296081542969,-0.08315058797597885,-0.1585244983434677
1708009829168580600,7.95058056640625,9.81954574584961,-0.06640082597732544,-0.1657029688358307
1708009829187136300,7.96913623046875,9.829116821289062,-0.07118647545576096,-0.1704886108636856
1708009829205691600,7.987691650390625,9.814760208129883,-0.07836493849754333,-0.16091732680797577
1708009829224247000,8.0062470703125,9.829116821289062,-0.08075776696205139,-0.1585244983434677
1708009829242802400,8.024802490234375,9.824331283569336,-0.06161518394947052,-0.1585244983434677
1708009829261357800,8.04335791015625,9.833903312683105,-0.08554340898990631,-0.1657029688358307
1708009829279913200,8.061913330078125,9.821938514709473,-0.08554340898990631,-0.15613168478012085
1708009829298468900,8.08046875,9.81236743927002,-0.07357929646968842,-0.1585244983434677
1708009829317024300,8.099024169921876,9.829116821289062,-0.08793623000383377,-0.1657029688358307
1708009829335579600,8.11757958984375,9.81954574584961,-0.08315058797597885,-0.16091732680797577
1708009829354135000,8.136135009765624,9.829116821289062,-0.06400800496339798,-0.1657029688358307
1708009829372690400,8.1546904296875,9.836296081542969,-0.08075776696205139,-0.16331014037132263
1708009829391245800,8.173245849609375,9.821938514709473,-0.08075776696205139,-0.15613168478012085
1708009829409801500,8.191801513671875,9.8267240524292,-0.07597211748361588,-0.1585244983434677
1708009829428356900,8.21035693359375,9.821938514709473,-0.08554340898990631,-0.1657029688358307
1708009829446912300,8.228912353515625,9.824331283569336,-0.08315058797597885,-0.16331014037132263
1708009829465467600,8.247467529296875,9.824331283569336,-0.07118647545576096,-0.1585244983434677
1708009829484023000,8.26602294921875,9.829116821289062,-0.07597211748361588,-0.1537388563156128
1708009829502578400,8.284578369140625,9.81954574584961,-0.08793623000383377,-0.14656038582324982
1708009829521134000,8.303134033203126,9.8267240524292,-0.07836493849754333,-0.15613168478012085
1708009829539689500,8.321689453125,9.831509590148926,-0.06161518394947052,-0.17766708135604858
1708009829558244900,8.340244873046874,9.81954574584961,-0.09272187948226929,-0.1657029688358307
1708009829576800300,8.35880029296875,9.821938514709473,-0.09990034252405167,-0.1537388563156128
1708009829595355600,8.377355712890624,9.831509590148926,-0.06640082597732544,-0.14656038582324982
1708009829613911000,8.3959111328125,9.8267240524292,-0.08793623000383377,-0.1657029688358307
1708009829632466700,8.414466796875,9.824331283569336,-0.07118647545576096,-0.18005990982055664
1708009829651022000,8.43302197265625,9.829116821289062,-0.06400800496339798,-0.1537388563156128
1708009829669577500,8.451577392578125,9.831509590148926,-0.09511470049619675,-0.14895321428775787
1708009829688132900,8.4701328125,9.824331283569336,-0.07836493849754333,-0.1537388563156128
1708009829706688300,8.488688232421875,9.824331283569336,-0.07597211748361588,-0.1657029688358307
1708009829725243600,8.50724365234375,9.824331283569336,-0.06161518394947052,-0.16091732680797577
1708009829743799000,8.525799072265626,9.8267240524292,-0.08315058797597885,-0.1537388563156128
1708009829762354700,8.544354736328126,9.8267240524292,-0.08315058797597885,-0.14416755735874176
1708009829780910000,8.56291015625,9.833903312683105,-0.0687936544418335,-0.1537388563156128
1708009829799465500,8.581465576171874,9.81954574584961,-0.07836493849754333,-0.16331014037132263
1708009829818020900,8.600020751953124,9.821938514709473,-0.08075776696205139,-0.1657029688358307
1708009829836576300,8.618576171875,9.829116821289062,-0.07597211748361588,-0.1657029688358307
1708009829855132000,8.6371318359375,9.829116821289062,-0.09272187948226929,-0.17766708135604858
1708009829873687300,8.655687255859375,9.8267240524292,-0.07357929646968842,-0.16091732680797577
1708009829892242700,8.67424267578125,9.8267240524292,-0.07357929646968842,-0.16331014037132263
1708009829910798000,8.692798095703125,9.833903312683105,-0.08315058797597885,-0.1585244983434677
1708009829929353500,8.711353515625,9.824331283569336,-0.07836493849754333,-0.16091732680797577
1708009829947909000,8.7299091796875,9.8267240524292,-0.06161518394947052,-0.16091732680797577
1708009829966464500,8.748464599609376,9.824331283569336,-0.07836493849754333,-0.14656038582324982
1708009829985020000,8.76702001953125,9.824331283569336,-0.07357929646968842,-0.15613168478012085
1708009830003575300,8.7855751953125,9.829116821289062,-0.07118647545576096,-0.1537388563156128
1708009830022130700,8.804130615234374,9.821938514709473,-0.08793623000383377,-0.16091732680797577
1708009830040686000,8.82268603515625,9.836296081542969,-0.06640082597732544,-0.14895321428775787
1708009830059241700,8.84124169921875,9.833903312683105,-0.06640082597732544,-0.16091732680797577
1708009830077797000,8.859797119140625,9.829116821289062,-0.07597211748361588,-0.16809579730033875
1708009830096352500,8.8783525390625,9.836296081542969,-0.06640082597732544,-0.17527425289154053
1708009830114908000,8.896907958984375,9.8267240524292,-0.07597211748361588,-0.1704886108636856
1708009830133466600,8.915466552734374,9.831509590148926,-0.09990034252405167,-0.1537388563156128
1708009830152022300,8.934022216796874,9.81954574584961,-0.0975075215101242,-0.15134602785110474
1708009830170577700,8.95257763671875,9.81954574584961,-0.08075776696205139,-0.1657029688358307
1708009830189133000,8.971133056640625,9.824331283569336,-0.07597211748361588,-0.17527425289154053
1708009830207688400,8.9896884765625,9.836296081542969,-0.08554340898990631,-0.15613168478012085
1708009830226243800,9.008243896484375,9.853045463562012,-0.0687936544418335,-0.14895321428775787
1708009830244799500,9.026799560546875,9.841081619262695,-0.09032905846834183,-0.14416755735874176
1708009830263355000,9.04535498046875,9.8267240524292,-0.08315058797597885,-0.14416755735874176
1708009830281910300,9.06391015625,9.824331283569336,-0.07357929646968842,-0.1585244983434677
1708009830300465700,9.082465576171876,9.81954574584961,-0.049651071429252625,-0.16809579730033875
1708009830319021000,9.10102099609375,9.81954574584961,-0.07597211748361588,-0.16809579730033875
1708009830337576700,9.11957666015625,9.829116821289062,-0.08075776696205139,-0.14656038582324982
1708009830356132000,9.138132080078124,9.821938514709473,-0.07836493849754333,-0.16091732680797577
1708009830374687500,9.1566875,9.833903312683105,-0.08075776696205139,-0.17288143932819366
1708009830393243000,9.175242919921875,9.838688850402832,-0.06400800496339798,-0.18723836541175842
1708009830411798300,9.19379833984375,9.829116821289062,-0.0687936544418335,-0.17527425289154053
1708009830430354000,9.21235400390625,9.836296081542969,-0.10229317098855972,-0.16331014037132263
1708009830448909300,9.230909423828125,9.829116821289062,-0.07597211748361588,-0.15613168478012085
1708009830467464700,9.249464599609375,9.824331283569336,-0.054436713457107544,-0.16331014037132263
1708009830486020000,9.26802001953125,9.829116821289062,-0.0687936544418335,-0.1704886108636856
1708009830504575500,9.286575439453125,9.8267240524292,-0.07357929646968842,-0.15613168478012085
1708009830523131100,9.305131103515626,9.841081619262695,-0.09032905846834183,-0.1585244983434677
1708009830541686500,9.3236865234375,9.831509590148926,-0.09032905846834183,-0.15613168478012085
1708009830560242000,9.342241943359374,9.833903312683105,-0.07357929646968842,-0.15613168478012085
1708009830578797300,9.36079736328125,9.831509590148926,-0.07357929646968842,-0.1585244983434677
1708009830597352700,9.379352783203124,9.824331283569336,-0.09032905846834183,-0.15134602785110474
1708009830615908400,9.397908447265625,9.81954574584961,-0.07118647545576096,-0.1585244983434677
1708009830634463700,9.416463623046875,9.8267240524292,-0.07357929646968842,-0.1704886108636856
1708009830653019100,9.43501904296875,9.831509590148926,-0.07836493849754333,-0.1657029688358307
1708009830671574500,9.453574462890625,9.833903312683105,-0.09032905846834183,-0.1537388563156128
1708009830690130000,9.4721298828125,9.850652694702148,-0.07118647545576096,-0.1657029688358307
1708009830708685600,9.490685546875,9.817152976989746,-0.07597211748361588,-0.17288143932819366
1708009830727241000,9.509240966796876,9.81954574584961,-0.08793623000383377,-0.1704886108636856
1708009830745796400,9.52779638671875,9.821938514709473,-0.0687936544418335,-0.16331014037132263
1708009830764351700,9.546351806640626,9.81954574584961,-0.08315058797597885,-0.16091732680797577
1708009830782907400,9.564907470703124,9.831509590148926,-0.08793623000383377,-0.1657029688358307
1708009830801462800,9.583462890625,9.833903312683105,-0.07836493849754333,-0.1585244983434677
1708009830820018200,9.60201806640625,9.838688850402832,-0.08075776696205139,-0.16091732680797577
1708009830838573600,9.620573486328125,9.831509590148926,-0.07357929646968842,-0.17288143932819366
1708009830857129000,9.63912890625,9.829116821289062,-0.07597211748361588,-0.16809579730033875
1708009830875684600,9.6576845703125,9.833903312683105,-0.05922235921025276,-0.15134602785110474
1708009830894240000,9.676239990234375,9.8267240524292,-0.07836493849754333,-0.1417747437953949
1708009830912795400,9.69479541015625,9.829116821289062,-0.08554340898990631,-0.15613168478012085
1708009830931350800,9.713350830078125,9.829116821289062,-0.0687936544418335,-0.1704886108636856
1708009830949906200,9.73190625,9.8267240524292,-0.07597211748361588,-0.1704886108636856
1708009830968461800,9.7504619140625,9.824331283569336,-0.08793623000383377,-0.15613168478012085
1708009830987017200,9.769017333984374,9.831509590148926,-0.08554340898990631,-0.1417747437953949
1708009831005572600,9.787572509765624,9.829116821289062,-0.08554340898990631,-0.14895321428775787
1708009831024128000,9.8061279296875,9.8267240524292,-0.07118647545576096,-0.1657029688358307
1708009831042683400,9.824683349609375,9.81954574584961,-0.07118647545576096,-0.18484555184841156
1708009831061239000,9.843239013671875,9.829116821289062,-0.06400800496339798,-0.16091732680797577
1708009831079794400,9.86179443359375,9.833903312683105,-0.08075776696205139,-0.13698910176753998
1708009831098349800,9.880349853515625,9.833903312683105,-0.0687936544418335,-0.14416755735874176
1708009831116905200,9.8989052734375,9.81954574584961,-0.08315058797597885,-0.17527425289154053
1708009831135460900,9.9174609375,9.814760208129883,-0.06400800496339798,-0.17766708135604858
1708009831154016300,9.936016357421876,9.8267240524292,-0.08315058797597885,-0.1537388563156128
1708009831172571600,9.954571533203126,9.829116821289062,-0.08315058797597885,-0.13938191533088684
1708009831191127000,9.973126953125,9.829116821289062,-0.08315058797597885,-0.15613168478012085
1708009831209682400,9.991682373046874,9.824331283569336,-0.07118647545576096,-0.17766708135604858
1708009831228238000,10.010238037109374,9.824331283569336,-0.07836493849754333,-0.1824527233839035
1708009831246793500,10.02879345703125,9.833903312683105,-0.08554340898990631,-0.16091732680797577
1708009831265348900,10.047348876953125,9.829116821289062,-0.09032905846834183,-0.14895321428775787
1708009831283904300,10.065904296875,9.831509590148926,-0.07836493849754333,-0.15613168478012085
1708009831302459600,10.084459716796875,9.829116821289062,-0.07357929646968842,-0.16091732680797577
1708009831321015300,10.103015380859375,9.829116821289062,-0.08075776696205139,-0.16331014037132263
1708009831339570700,10.12157080078125,9.8267240524292,-0.0687936544418335,-0.1585244983434677
1708009831358126000,10.1401259765625,9.829116821289062,-0.07597211748361588,-0.15613168478012085
1708009831376681500,10.158681396484376,9.81954574584961,-0.09032905846834183,-0.16091732680797577
1708009831395237000,10.177237060546876,9.824331283569336,-0.07118647545576096,-0.1585244983434677
1708009831413792500,10.19579248046875,9.821938514709473,-0.07836493849754333,-0.1585244983434677
1708009831432348000,10.214347900390624,9.824331283569336,-0.07597211748361588,-0.16809579730033875
1708009831450903300,10.2329033203125,9.833903312683105,-0.07357929646968842,-0.17288143932819366
1708009831469459000,10.251458984375,9.829116821289062,-0.0687936544418335,-0.16091732680797577
1708009831488014300,10.270014404296875,9.836296081542969,-0.07836493849754333,-0.1585244983434677
1708009831506569700,10.28856982421875,9.836296081542969,-0.07597211748361588,-0.15613168478012085
1708009831525125000,10.307125,9.8267240524292,-0.08554340898990631,-0.1657029688358307
1708009831543680800,10.3256806640625,9.829116821289062,-0.07118647545576096,-0.16091732680797577
1708009831562236200,10.344236083984375,9.8267240524292,-0.07357929646968842,-0.14895321428775787
1708009831580791600,10.36279150390625,9.824331283569336,-0.07836493849754333,-0.15613168478012085
1708009831599347000,10.381346923828126,9.836296081542969,-0.07118647545576096,-0.1657029688358307
1708009831617902600,10.399902587890624,9.829116821289062,-0.07357929646968842,-0.16331014037132263
1708009831636458000,10.4184580078125,9.833903312683105,-0.08315058797597885,-0.1704886108636856
1708009831655013400,10.437013427734374,9.831509590148926,-0.08315058797597885,-0.1537388563156128
1708009831673568800,10.45556884765625,9.814760208129883,-0.08075776696205139,-0.16091732680797577
1708009831692124400,10.47412451171875,9.821938514709473,-0.08075776696205139,-0.14416755735874176
1708009831710679800,10.4926796875,9.824331283569336,-0.08075776696205139,-0.1537388563156128
1708009831729235200,10.511235107421875,9.817152976989746,-0.07597211748361588,-0.18005990982055664
1708009831747790600,10.52979052734375,9.8267240524292,-0.05922235921025276,-0.17766708135604858
1708009831766346000,10.548345947265625,9.833903312683105,-0.08075776696205139,-0.14895321428775787
1708009831784901600,10.566901611328126,9.833903312683105,-0.08554340898990631,-0.13220344483852386
1708009831803457000,10.58545703125,9.833903312683105,-0.07597211748361588,-0.16091732680797577
1708009831822012400,10.604012451171876,9.826126098632812,-0.06640082597732544,-0.18484555184841156
1708009831840567800,10.62256787109375,9.8267240524292,-0.07597211748361588,-0.17527425289154053
1708009831859123500,10.64112353515625,9.829116821289062,-0.08315058797597885,-0.15613168478012085
1708009831877678800,10.659678955078125,9.829116821289062,-0.08075776696205139,-0.14895321428775787
1708009831896234200,10.678234130859375,9.821938514709473,-0.08075776696205139,-0.16331014037132263
1708009831914789600,10.69678955078125,9.824331283569336,-0.0687936544418335,-0.17288143932819366
1708009831933345300,10.71534521484375,9.831509590148926,-0.0687936544418335,-0.16331014037132263
1708009831951900700,10.733900634765625,9.8267240524292,-0.08315058797597885,-0.16091732680797577
1708009831970456000,10.7524560546875,9.829116821289062,-0.07357929646968842,-0.16331014037132263
1708009831989011500,10.771011474609375,9.8267240524292,-0.07357929646968842,-0.16331014037132263
1708009832007567000,10.789567138671876,9.824331283569336,-0.08554340898990631,-0.15134602785110474
1708009832026122500,10.80812255859375,9.81954574584961,-0.08793623000383377,-0.14416755735874176
1708009832044678000,10.826677978515624,9.831509590148926,-0.0687936544418335,-0.15613168478012085
1708009832063233300,10.8452333984375,9.81954574584961,-0.08075776696205139,-0.17288143932819366
1708009832081789000,10.863788818359374,9.836296081542969,-0.0687936544418335,-0.15613168478012085
1708009832100344300,10.88234423828125,9.831509590148926,-0.08315058797597885,-0.14656038582324982
1708009832118899700,10.900899658203125,9.833903312683105,-0.06400800496339798,-0.15613168478012085
1708009832137455400,10.919455322265625,9.8267240524292,-0.07357929646968842,-0.17766708135604858
1708009832156010800,10.9380107421875,9.826126098632812,-0.08793623000383377,-0.17527425289154053
1708009832174566100,10.956566162109375,9.817152976989746,-0.09272187948226929,-0.15613168478012085
1708009832193121500,10.97512158203125,9.821938514709473,-0.0687936544418335,-0.1585244983434677
1708009832211677200,10.99367724609375,9.824331283569336,-0.08075776696205139,-0.17288143932819366
1708009832230232600,11.012232666015626,9.821938514709473,-0.06640082597732544,-0.17527425289154053
1708009832248788000,11.0307880859375,9.8267240524292,-0.09032905846834183,-0.1585244983434677
1708009832267343400,11.04934326171875,9.833903312683105,-0.07836493849754333,-0.14656038582324982
1708009832285898800,11.067898681640624,9.833903312683105,-0.07357929646968842,-0.1585244983434677
1708009832304454400,11.086454345703125,9.829116821289062,-0.08315058797597885,-0.1537388563156128
1708009832323009800,11.105009765625,9.824331283569336,-0.07357929646968842,-0.16091732680797577
1708009832341565200,11.123565185546875,9.821938514709473,-0.05922235921025276,-0.1585244983434677
1708009832360120600,11.14212060546875,9.817152976989746,-0.0975075215101242,-0.16331014037132263
1708009832378676200,11.16067626953125,9.81954574584961,-0.08554340898990631,-0.16091732680797577
1708009832397231600,11.179231689453125,9.833903312683105,-0.07118647545576096,-0.1537388563156128
1708009832415787000,11.197787109375,9.829116821289062,-0.08793623000383377,-0.16331014037132263
1708009832434342700,11.2163427734375,9.824331283569336,-0.07357929646968842,-0.1704886108636856
1708009832452898000,11.23489794921875,9.829116821289062,-0.06400800496339798,-0.16809579730033875
1708009832471453400,11.253453369140624,9.824331283569336,-0.08075776696205139,-0.16091732680797577
1708009832490009000,11.272009033203124,9.821938514709473,-0.09511470049619675,-0.15613168478012085
1708009832508564500,11.290564453125,9.8267240524292,-0.08075776696205139,-0.16091732680797577
1708009832527120000,11.309119873046875,9.8267240524292,-0.07836493849754333,-0.16809579730033875
1708009832545675300,11.32767529296875,9.8267240524292,-0.07118647545576096,-0.1585244983434677
1708009832564231000,11.34623095703125,9.831509590148926,-0.08075776696205139,-0.14416755735874176
1708009832582786300,11.364786376953125,9.8267240524292,-0.07836493849754333,-0.14895321428775787
1708009832601341700,11.383341796875,9.824331283569336,-0.05922235921025276,-0.1585244983434677
1708009832619897000,11.40189697265625,9.81954574584961,-0.08075776696205139,-0.15613168478012085
1708009832638452700,11.42045263671875,9.8267240524292,-0.07597211748361588,-0.15613168478012085
1708009832657008000,11.439008056640626,9.824331283569336,-0.07118647545576096,-0.16331014037132263
1708009832675563500,11.4575634765625,9.81954574584961,-0.07836493849754333,-0.1657029688358307
1708009832694119200,11.476119140625,9.831509590148926,-0.08075776696205139,-0.16809579730033875
1708009832712674600,11.494674560546875,9.8267240524292,-0.0687936544418335,-0.18005990982055664
1708009832731230000,11.51322998046875,9.836296081542969,-0.07836493849754333,-0.16091732680797577
1708009832749785600,11.53178564453125,9.836296081542969,-0.08315058797597885,-0.15613168478012085
1708009832768341000,11.550341064453125,9.845867156982422,-0.08075776696205139,-0.1537388563156128
1708009832786896400,11.568896484375,9.829116821289062,-0.07357929646968842,-0.15613168478012085
1708009832805451800,11.58745166015625,9.824331283569336,-0.07836493849754333,-0.15134602785110474
1708009832824007400,11.60600732421875,9.81954574584961,-0.07118647545576096,-0.16809579730033875
1708009832842562800,11.624562744140626,9.8267240524292,-0.07597211748361588,-0.1585244983434677
1708009832861118200,11.6431181640625,9.833903312683105,-0.08075776696205139,-0.1585244983434677
1708009832879673900,11.661673828125,9.833903312683105,-0.08315058797597885,-0.14656038582324982
1708009832898229200,11.680229248046874,9.829116821289062,-0.07118647545576096,-0.1704886108636856
1708009832916784600,11.69878466796875,9.833903312683105,-0.07118647545576096,-0.17288143932819366
1708009832935340300,11.71734033203125,9.833903312683105,-0.07357929646968842,-0.16331014037132263
1708009832953895700,11.735895751953125,9.836296081542969,-0.08075776696205139,-0.14895321428775787
1708009832972451000,11.754451171875,9.831509590148926,-0.08315058797597885,-0.16331014037132263
1708009832991006500,11.77300634765625,9.821938514709473,-0.07118647545576096,-0.16091732680797577
1708009833009562000,11.79156201171875,9.821938514709473,-0.07118647545576096,-0.17288143932819366
1708009833028117500,11.810117431640625,9.8267240524292,-0.09272187948226929,-0.17288143932819366
1708009833046673000,11.8286728515625,9.8267240524292,-0.07597211748361588,-0.1585244983434677
1708009833065228500,11.847228515625,9.838688850402832,-0.05922235921025276,-0.15613168478012085
1708009833083784000,11.865783935546874,9.8267240524292,-0.06640082597732544,-0.15134602785110474
1708009833102339300,11.88433935546875,9.81954574584961,-0.09272187948226929,-0.15134602785110474
1708009833120895000,11.90289501953125,9.817152976989746,-0.07836493849754333,-0.1585244983434677
1708009833139450400,11.921450439453125,9.817152976989746,-0.07118647545576096,-0.16809579730033875
1708009833158005800,11.940005859375,9.8267240524292,-0.09272187948226929,-0.16091732680797577
1708009833176561200,11.95856103515625,9.8267240524292,-0.07597211748361588,-0.13938191533088684
1708009833195116800,11.97711669921875,9.836296081542969,-0.07597211748361588,-0.16091732680797577
1708009833213672200,11.995672119140625,9.833304405212402,-0.06640082597732544,-0.17527425289154053
1708009833232227600,12.0142275390625,9.840482711791992,-0.09032905846834183,-0.17288143932819366
1708009833250783200,12.032783203125,9.836296081542969,-0.07118647545576096,-0.14656038582324982
1708009833269338600,12.051338623046876,9.8267240524292,-0.09032905846834183,-0.14895321428775787
1708009833287894000,12.06989404296875,9.817152976989746,-0.09032905846834183,-0.16091732680797577
1708009833306449700,12.08844970703125,9.81655502319336,-0.05922235921025276,-0.17766708135604858
1708009833325005000,12.107005126953124,9.821938514709473,-0.07118647545576096,-0.16331014037132263
1708009833343560400,12.125560546875,9.824331283569336,-0.09272187948226929,-0.14416755735874176
1708009833362116000,12.1441162109375,9.829116821289062,-0.07597211748361588,-0.14416755735874176
1708009833380671500,12.16267138671875,9.833903312683105,-0.06400800496339798,-0.1704886108636856
1708009833399227000,12.181226806640625,9.8267240524292,-0.08075776696205139,-0.16809579730033875
1708009833417782500,12.199782470703125,9.824331283569336,-0.08554340898990631,-0.16091732680797577
1708009833436338000,12.218337890625,9.824331283569336,-0.0687936544418335,-0.15613168478012085
1708009833454893300,12.236893310546876,9.821938514709473,-0.0687936544418335,-0.16091732680797577
1708009833473448700,12.25544873046875,9.824331283569336,-0.07597211748361588,-0.1657029688358307
1708009833492004400,12.27400439453125,9.831509590148926,-0.07118647545576096,-0.16091732680797577
1708009833510559700,12.292559814453124,9.8267240524292,-0.08075776696205139,-0.1657029688358307
1708009833529115100,12.311115234375,9.838089942932129,-0.0687936544418335,-0.16331014037132263
1708009833547670800,12.3296708984375,9.836296081542969,-0.07357929646968842,-0.15134602785110474
1708009833566226200,12.34822607421875,9.831509590148926,-0.08075776696205139,-0.15134602785110474
1708009833584781600,12.366781494140625,9.828518867492676,-0.07836493849754333,-0.1657029688358307
1708009833603337200,12.385337158203125,9.8267240524292,-0.07118647545576096,-0.16091732680797577
1708009833621892600,12.403892578125,9.821938514709473,-0.09511470049619675,-0.16331014037132263
1708009833640448000,12.422447998046875,9.8267240524292,-0.08315058797597885,-0.15613168478012085
1708009833659003600,12.441003662109376,9.809974670410156,-0.07597211748361588,-0.16331014037132263
1708009833677559000,12.45955908203125,9.826126098632812,-0.07118647545576096,-0.16091732680797577
1708009833696114400,12.478114501953126,9.829116821289062,-0.08793623000383377,-0.16331014037132263
1708009833714670000,12.496670166015624,9.838688850402832,-0.0687936544418335,-0.15613168478012085
1708009833733225500,12.5152255859375,9.824331283569336,-0.08075776696205139,-0.15613168478012085
1708009833751780900,12.53378076171875,9.821938514709473,-0.09272187948226929,-0.16809579730033875
1708009833770336500,12.55233642578125,9.821938514709473,-0.08075776696205139,-0.16809579730033875
1708009833788892000,12.570891845703125,9.821938514709473,-0.06161518394947052,-0.15134602785110474
1708009833807447300,12.589447265625,9.824331283569336,-0.08315058797597885,-0.15613168478012085
1708009833826003000,12.6080029296875,9.8267240524292,-0.07836493849754333,-0.16091732680797577
1708009833844558300,12.626558349609375,9.824331283569336,-0.06640082597732544,-0.16091732680797577
1708009833863113700,12.64511376953125,9.831509590148926,-0.07118647545576096,-0.1704886108636856
1708009833881669000,12.663669189453126,9.829116821289062,-0.07597211748361588,-0.1704886108636856
1708009833900224800,12.682224853515624,9.836296081542969,-0.07597211748361588,-0.1537388563156128
1708009833918780200,12.7007802734375,9.824331283569336,-0.09272187948226929,-0.14895321428775787
1708009833937335800,12.719335693359374,9.8267240524292,-0.07836493849754333,-0.15134602785110474
1708009833955891200,12.73789111328125,9.828518867492676,-0.07597211748361588,-0.16809579730033875
1708009833974446600,12.756446533203125,9.82373332977295,-0.04486542567610741,-0.17288143932819366
1708009833993002200,12.775002197265625,9.8267240524292,-0.07597211748361588,-0.1585244983434677
1708009834011557600,12.7935576171875,9.833903312683105,-0.08315058797597885,-0.13220344483852386
1708009834030113000,12.812113037109375,9.836296081542969,-0.09511470049619675,-0.1537388563156128
1708009834048668700,12.830668701171875,9.828518867492676,-0.06161518394947052,-0.18723836541175842
1708009834067224000,12.84922412109375,9.833304405212402,-0.08315058797597885,-0.1824527233839035
1708009834085779500,12.867779541015626,9.8267240524292,-0.08075776696205139,-0.1537388563156128
1708009834104335000,12.886335205078124,9.833304405212402,-0.08075776696205139,-0.1537388563156128
1708009834122890500,12.904890380859374,9.826126098632812,-0.08315058797597885,-0.16809579730033875
1708009834141446000,12.92344580078125,9.828518867492676,-0.07118647545576096,-0.17766708135604858
1708009834160001500,12.94200146484375,9.82373332977295,-0.06640082597732544,-0.1585244983434677
1708009834178557000,12.960556884765625,9.829116821289062,-0.08793623000383377,-0.14895321428775787
1708009834197112300,12.9791123046875,9.8267240524292,-0.06400800496339798,-0.14835500717163086
1708009834215668000,12.99766796875,9.82373332977295,-0.0687936544418335,-0.1657029688358307
1708009834234223400,13.016223388671875,9.828518867492676,-0.08793623000383377,-0.16331014037132263
1708009834252778800,13.03477880859375,9.81954574584961,-0.07836493849754333,-0.14835500717163086
1708009834271334400,13.05333447265625,9.824331283569336,-0.06161518394947052,-0.15134602785110474
1708009834289889800,13.071889892578126,9.826126098632812,-0.08554340898990631,-0.1657029688358307
1708009834308445200,13.090445068359376,9.833903312683105,-0.07836493849754333,-0.14895321428775787
1708009834327000800,13.109000732421874,9.8267240524292,-0.07597211748361588,-0.15134602785110474
1708009834345556200,13.12755615234375,9.838089942932129,-0.07836493849754333,-0.17288143932819366
1708009834364111600,13.146111572265625,9.824331283569336,-0.08554340898990631,-0.17288143932819366
1708009834382667300,13.164667236328125,9.833903312683105,-0.07357929646968842,-0.1537388563156128
1708009834401222700,13.18322265625,9.821938514709473,-0.07836493849754333,-0.15134602785110474
1708009834419778000,13.201778076171875,9.829116821289062,-0.08554340898990631,-0.16091732680797577
1708009834438333700,13.220333740234375,9.8267240524292,-0.07597211748361588,-0.17527425289154053
1708009834456889000,13.23888916015625,9.829116821289062,-0.06400800496339798,-0.16809579730033875
1708009834475444700,13.25744482421875,9.831509590148926,-0.08075776696205139,-0.14895321428775787
1708009834494000000,13.276000244140626,9.831509590148926,-0.09032905846834183,-0.14416755735874176
1708009834512555500,13.294555419921876,9.833903312683105,-0.07118647545576096,-0.15134602785110474
1708009834531111000,13.31311083984375,9.828518867492676,-0.06161518394947052,-0.1585244983434677
1708009834549666600,13.33166650390625,9.818947792053223,-0.08315058797597885,-0.17288143932819366
1708009834568222000,13.350221923828125,9.830911636352539,-0.0687936544418335,-0.16091732680797577
1708009834586777600,13.368777587890625,9.835697174072266,-0.07118647545576096,-0.16091732680797577
1708009834605333000,13.3873330078125,9.821938514709473,-0.09511470049619675,-0.14895321428775787
1708009834623888400,13.405888427734375,9.829116821289062,-0.0687936544418335,-0.1585244983434677
1708009834642444000,13.424444091796875,9.828518867492676,-0.05922235921025276,-0.1657029688358307
1708009834660999400,13.44299951171875,9.826126098632812,-0.07836493849754333,-0.17288143932819366
1708009834679554800,13.461554931640626,9.828518867492676,-0.07597211748361588,-0.17527425289154053
1708009834698110500,13.4801103515625,9.826126098632812,-0.08315058797597885,-0.16091732680797577
1708009834716665900,13.498665771484376,9.828518867492676,-0.07357929646968842,-0.16809579730033875
1708009834735221200,13.51722119140625,9.818947792053223,-0.09032905846834183,-0.17527425289154053
1708009834753777000,13.53577685546875,9.821340560913086,-0.07118647545576096,-0.17288143932819366
1708009834772332300,13.554332275390625,9.814760208129883,-0.08075776696205139,-0.16331014037132263
1708009834790887700,13.5728876953125,9.8267240524292,-0.07357929646968842,-0.15613168478012085
1708009834809443300,13.591443359375,9.840482711791992,-0.08315058797597885,-0.16331014037132263
1708009834827998700,13.609998779296875,9.848259925842285,-0.07118647545576096,-0.14895321428775787
1708009834846554400,13.628554443359375,9.843474388122559,-0.07597211748361588,-0.13698910176753998
1708009834865109800,13.64710986328125,9.829116821289062,-0.07118647545576096,-0.13938191533088684
1708009834883665200,13.6656650390625,9.821938514709473,-0.08554340898990631,-0.14895321428775787
1708009834902220800,13.684220703125,9.821938514709473,-0.06400800496339798,-0.1585244983434677
1708009834920776200,13.702776123046876,9.81954574584961,-0.07597211748361588,-0.15613168478012085
1708009834939331600,13.72133154296875,9.814162254333496,-0.07357929646968842,-0.16331014037132263
1708009834957887200,13.73988720703125,9.828518867492676,-0.07836493849754333,-0.18963119387626648
1708009834976442600,13.758442626953125,9.833304405212402,-0.06400800496339798,-0.18484555184841156
1708009834994998300,13.776998291015625,9.838089942932129,-0.07118647545576096,-0.1585244983434677
1708009835013553700,13.7955537109375,9.845269203186035,-0.08793623000383377,-0.1537388563156128
1708009835032109000,13.814109130859375,9.82373332977295,-0.07118647545576096,-0.1704886108636856
1708009835050664700,13.832664794921875,9.833304405212402,-0.06640082597732544,-0.17527425289154053
1708009835069220000,13.85122021484375,9.828518867492676,-0.07836493849754333,-0.16809579730033875
1708009835087775500,13.869775390625,9.821938514709473,-0.09272187948226929,-0.15613168478012085
1708009835106331100,13.8883310546875,9.821938514709473,-0.08793623000383377,-0.1537388563156128
1708009835124886500,13.906886474609376,9.814162254333496,-0.08075776696205139,-0.14117653667926788
1708009835143442000,13.92544189453125,9.82373332977295,-0.08554340898990631,-0.12921242415905
1708009835161997600,13.94399755859375,9.826126098632812,-0.07357929646968842,-0.16031911969184875
1708009835180553000,13.962552978515625,9.821340560913086,-0.06161518394947052,-0.18903298676013947
1708009835199108600,13.981108642578125,9.833304405212402,-0.05922235921025276,-0.18005990982055664
1708009835217664000,13.9996640625,9.833304405212402,-0.0975075215101242,-0.1579262912273407
1708009835236219400,14.018219482421875,9.835697174072266,-0.08554340898990631,-0.13878370821475983
1708009835254775000,14.036775146484375,9.828518867492676,-0.07118647545576096,-0.16749759018421173
1708009835273330400,14.055330322265625,9.804591178894043,-0.08793623000383377,-0.18424734473228455
1708009835291886000,14.073885986328126,9.821340560913086,-0.07836493849754333,-0.1746760457754135
1708009835310441500,14.09244140625,9.826126098632812,-0.08075776696205139,-0.15074782073497772
1708009835328996900,14.110996826171874,9.830911636352539,-0.08315058797597885,-0.13639089465141296
1708009835347552500,14.129552490234374,9.830911636352539,-0.07357929646968842,-0.1459621787071228
1708009835366108000,14.14810791015625,9.830911636352539,-0.0687936544418335,-0.16331014037132263
1708009835384663300,14.166663330078125,9.821340560913086,-0.08315058797597885,-0.1698904037475586
1708009835403219000,14.185218994140625,9.818947792053223,-0.08554340898990631,-0.15314064919948578
1708009835421774300,14.2037744140625,9.821340560913086,-0.07597211748361588,-0.16031911969184875
1708009835440330000,14.222330078125,9.826126098632812,-0.07118647545576096,-0.16510476171970367
1708009835458885400,14.240885498046875,9.828518867492676,-0.07597211748361588,-0.17288143932819366
1708009835477440800,14.259440673828125,9.818947792053223,-0.07597211748361588,-0.19202402234077454
1708009835495996400,14.277996337890626,9.835697174072266,-0.07118647545576096,-0.16809579730033875
1708009835514551800,14.2965517578125,9.830911636352539,-0.07836493849754333,-0.14835500717163086
1708009835533107200,14.315107177734374,9.833903312683105,-0.08554340898990631,-0.14656038582324982
1708009835551662800,14.333662841796874,9.828518867492676,-0.0687936544418335,-0.15613168478012085
1708009835570218200,14.35221826171875,9.82373332977295,-0.06161518394947052,-0.16809579730033875
1708009835588774000,14.37077392578125,9.829116821289062,-0.07118647545576096,-0.15134602785110474
1708009835607329300,14.389329345703125,9.833903312683105,-0.08793623000383377,-0.14416755735874176
1708009835625885000,14.407885009765625,9.829116821289062,-0.08075776696205139,-0.14656038582324982
1708009835644440300,14.4264404296875,9.828518867492676,-0.07118647545576096,-0.17527425289154053
1708009835662995700,14.44499560546875,9.826126098632812,-0.08075776696205139,-0.17527425289154053
1708009835681551400,14.46355126953125,9.826126098632812,-0.08075776696205139,-0.1585244983434677
1708009835700106800,14.482106689453126,9.829116821289062,-0.0568295381963253,-0.15134602785110474
1708009835718662100,14.500662109375,9.821340560913086,-0.08554340898990631,-0.17288143932819366
1708009835737217800,14.5192177734375,9.830911636352539,-0.07357929646968842,-0.1704886108636856
1708009835755773200,14.537773193359374,9.830911636352539,-0.07597211748361588,-0.16809579730033875
1708009835774328800,14.556328857421875,9.830911636352539,-0.07597211748361588,-0.16091732680797577
1708009835792884200,14.57488427734375,9.821340560913086,-0.08793623000383377,-0.15553347766399384
1708009835811439900,14.59343994140625,9.826126098632812,-0.05922235921025276,-0.16271193325519562
1708009835829995300,14.611995361328125,9.821340560913086,-0.07836493849754333,-0.1657029688358307
1708009835848550700,14.630550537109375,9.826126098632812,-0.07597211748361588,-0.1579262912273407
1708009835867106300,14.649106201171875,9.833304405212402,-0.08554340898990631,-0.15613168478012085
1708009835885661700,14.66766162109375,9.835697174072266,-0.07357929646968842,-0.1537388563156128
1708009835904217000,14.686217041015626,9.81655502319336,-0.07357929646968842,-0.1579262912273407
1708009835922772700,14.704772705078126,9.828518867492676,-0.08315058797597885,-0.16331014037132263
1708009835941328100,14.723328125,9.833304405212402,-0.07118647545576096,-0.16331014037132263
1708009835959883800,14.7418837890625,9.818947792053223,-0.07357929646968842,-0.1579262912273407
1708009835978439200,14.760439208984375,9.826126098632812,-0.07836493849754333,-0.16749759018421173
1708009835996994800,14.778994873046875,9.833304405212402,-0.08793623000383377,-0.1657029688358307
1708009836015550200,14.79755029296875,9.82373332977295,-0.07597211748361588,-0.1746760457754135
1708009836034105600,14.816105712890625,9.828518867492676,-0.08315058797597885,-0.1657029688358307
1708009836052661200,14.8346611328125,9.838089942932129,-0.07597211748361588,-0.1657029688358307
1708009836071216600,14.853216552734375,9.82373332977295,-0.06640082597732544,-0.15074782073497772
1708009836089772300,14.871772216796876,9.82373332977295,-0.07597211748361588,-0.14835500717163086
1708009836108327700,14.89032763671875,9.82373332977295,-0.09511470049619675,-0.16271193325519562
1708009836126883300,14.90888330078125,9.833304405212402,-0.049651071429252625,-0.16809579730033875
1708009836145438700,14.927438720703124,9.833304405212402,-0.06161518394947052,-0.1704886108636856
1708009836163994000,14.945994140625,9.835697174072266,-0.08554340898990631,-0.1339980661869049
1708009836182549800,14.9645498046875,9.833304405212402,-0.07836493849754333,-0.15074782073497772
1708009836201105200,14.983105224609375,9.833304405212402,-0.04247260093688965,-0.17288143932819366
1708009836219660800,15.001660888671875,9.821340560913086,-0.07357929646968842,-0.18963119387626648
1708009836238216200,15.02021630859375,9.821340560913086,-0.0687936544418335,-0.16271193325519562
1708009836256771600,15.038771484375,9.821340560913086,-0.08554340898990631,-0.14835500717163086
1708009836275327200,15.0573271484375,9.821340560913086,-0.08554340898990631,-0.16749759018421173
1708009836293882600,15.075882568359376,9.821340560913086,-0.08793623000383377,-0.18963119387626648
1708009836312438300,15.094438232421876,9.833304405212402,-0.07836493849754333,-0.1579262912273407
1708009836330993700,15.11299365234375,9.833304405212402,-0.09032905846834183,-0.1459621787071228
1708009836349549300,15.13154931640625,9.835697174072266,-0.08554340898990631,-0.15553347766399384
1708009836368104700,15.150104736328124,9.82373332977295,-0.08075776696205139,-0.16510476171970367
1708009836386660000,15.16866015625,9.833304405212402,-0.07357929646968842,-0.1579262912273407
1708009836405215700,15.1872158203125,9.828518867492676,-0.09272187948226929,-0.15074782073497772
1708009836423771100,15.205771240234375,9.826126098632812,-0.08554340898990631,-0.15314064919948578
1708009836442326800,15.224326904296875,9.826126098632812,-0.0687936544418335,-0.16510476171970367
1708009836460882200,15.242882080078125,9.821340560913086,-0.07597211748361588,-0.16271193325519562
1708009836479437800,15.261437744140625,9.826126098632812,-0.07597211748361588,-0.1579262912273407
1708009836497993200,15.2799931640625,9.830313682556152,-0.06400800496339798,-0.17228323221206665
1708009836516548600,15.298548583984376,9.830911636352539,-0.07357929646968842,-0.16749759018421173
1708009836535104300,15.317104248046874,9.835697174072266,-0.06640082597732544,-0.1704886108636856
1708009836553659600,15.33565966796875,9.828518867492676,-0.08554340898990631,-0.15314064919948578
1708009836572215300,15.35421533203125,9.828518867492676,-0.07597211748361588,-0.16031911969184875
1708009836590770700,15.372770751953125,9.818947792053223,-0.08793623000383377,-0.1698904037475586
1708009836609326300,15.391326416015625,9.828518867492676,-0.07357929646968842,-0.16271193325519562
1708009836627881700,15.4098818359375,9.826126098632812,-0.08554340898990631,-0.1579262912273407
1708009836646437000,15.42843701171875,9.821340560913086,-0.07597211748361588,-0.15553347766399384
1708009836664992800,15.44699267578125,9.833304405212402,-0.07597211748361588,-0.15553347766399384
1708009836683548200,15.465548095703125,9.840482711791992,-0.07357929646968842,-0.1585244983434677
1708009836702103800,15.484103759765626,9.828518867492676,-0.07597211748361588,-0.15553347766399384
1708009836720659200,15.5026591796875,9.826126098632812,-0.06161518394947052,-0.16031911969184875
1708009836739214800,15.52121484375,9.828518867492676,-0.09511470049619675,-0.15074782073497772
1708009836757770200,15.539770263671874,9.818947792053223,-0.08793623000383377,-0.16031911969184875
1708009836776325600,15.55832568359375,9.826126098632812,-0.05922235921025276,-0.16031911969184875
1708009836794881300,15.57688134765625,9.827920913696289,-0.08075776696205139,-0.16510476171970367
1708009836813436700,15.595436767578125,9.82373332977295,-0.09032905846834183,-0.17228323221206665
1708009836831992300,15.613992431640625,9.830313682556152,-0.0568295381963253,-0.17706887423992157
1708009836850547700,15.632547607421875,9.830911636352539,-0.08075776696205139,-0.16510476171970367
1708009836869103400,15.651103271484375,9.828518867492676,-0.07597211748361588,-0.15314064919948578
1708009836887658800,15.66965869140625,9.838089942932129,-0.07597211748361588,-0.16271193325519562
1708009836906214400,15.68821435546875,9.826126098632812,-0.07118647545576096,-0.15314064919948578
1708009836924769800,15.706769775390624,9.821340560913086,-0.08554340898990631,-0.1579262912273407
1708009836943325400,15.725325439453124,9.818947792053223,-0.0687936544418335,-0.1579262912273407
1708009836961880800,15.743880859375,9.828518867492676,-0.07597211748361588,-0.16031911969184875
1708009836980436200,15.762436279296875,9.82373332977295,-0.08075776696205139,-0.15553347766399384
1708009836998992000,15.780991943359375,9.833304405212402,-0.07836493849754333,-0.15613168478012085
1708009837017547300,15.79954736328125,9.826126098632812,-0.0687936544418335,-0.1579262912273407
1708009837036103000,15.81810302734375,9.81655502319336,-0.09032905846834183,-0.1746760457754135
1708009837054658300,15.836658203125,9.828518867492676,-0.07597211748361588,-0.18005990982055664
1708009837073214000,15.8552138671875,9.828518867492676,-0.07836493849754333,-0.16809579730033875
1708009837091769300,15.873769287109376,9.826126098632812,-0.07597211748361588,-0.15074782073497772
1708009837110325000,15.892324951171876,9.826126098632812,-0.08554340898990631,-0.1537388563156128
1708009837128880400,15.91088037109375,9.82373332977295,-0.07597211748361588,-0.15314064919948578
1708009837147436000,15.92943603515625,9.818947792053223,-0.08075776696205139,-0.17706887423992157
1708009837165991400,15.947991455078125,9.828518867492676,-0.06161518394947052,-0.16809579730033875
1708009837184546800,15.966546875,9.82373332977295,-0.08793623000383377,-0.1459621787071228
1708009837203102500,15.9851025390625,9.826126098632812,-0.10229317098855972,-0.15553347766399384
1708009837221657900,16.003657958984373,9.826126098632812,-0.07118647545576096,-0.16809579730033875
1708009837240213500,16.022213623046873,9.830911636352539,-0.06400800496339798,-0.1704886108636856
1708009837258769000,16.040768798828125,9.82373332977295,-0.08315058797597885,-0.15074782073497772
1708009837277324500,16.059324462890626,9.828518867492676,-0.08554340898990631,-0.16271193325519562
1708009837295880000,16.0778798828125,9.830911636352539,-0.07118647545576096,-0.18005990982055664
1708009837314435600,16.096435546875,9.830911636352539,-0.07597211748361588,-0.1824527233839035
1708009837332991000,16.114990966796874,9.826126098632812,-0.09032905846834183,-0.16510476171970367
1708009837351546600,16.133546630859374,9.814162254333496,-0.08793623000383377,-0.15314064919948578
1708009837370102000,16.15210205078125,9.830911636352539,-0.08315058797597885,-0.15074782073497772
1708009837388657400,16.170657470703127,9.825528144836426,-0.07357929646968842,-0.16749759018421173
1708009837407213000,16.189213134765627,9.821340560913086,-0.06400800496339798,-0.15553347766399384
1708009837425768400,16.2077685546875,9.838089942932129,-0.07597211748361588,-0.1579262912273407
1708009837444324000,16.226323974609375,9.835697174072266,-0.07836493849754333,-0.15553347766399384
1708009837462879500,16.24487939453125,9.826126098632812,-0.06161518394947052,-0.16031911969184875
1708009837481435100,16.26343505859375,9.82373332977295,-0.08075776696205139,-0.15553347766399384
1708009837499990500,16.281990478515624,9.82373332977295,-0.08075776696205139,-0.1459621787071228
1708009837518546200,16.300546142578124,9.818947792053223,-0.07118647545576096,-0.16271193325519562
1708009837537101600,16.3191015625,9.818947792053223,-0.0687936544418335,-0.16510476171970367
1708009837555657200,16.3376572265625,9.82373332977295,-0.07597211748361588,-0.16031911969184875
1708009837574212600,16.356212646484376,9.838089942932129,-0.07357929646968842,-0.15314064919948578
1708009837592768300,16.374768310546877,9.833304405212402,-0.08315058797597885,-0.16809579730033875
1708009837611323600,16.39332373046875,9.833304405212402,-0.07836493849754333,-0.1698904037475586
1708009837629879300,16.41187939453125,9.81655502319336,-0.07597211748361588,-0.16031911969184875
1708009837648434700,16.4304345703125,9.818947792053223,-0.08315058797597885,-0.16510476171970367
1708009837666990300,16.448990234375,9.814162254333496,-0.08315058797597885,-0.1579262912273407
1708009837685545700,16.467545654296874,9.828518867492676,-0.07118647545576096,-0.1579262912273407
1708009837704101400,16.486101318359374,9.826126098632812,-0.08315058797597885,-0.16510476171970367
1708009837722656800,16.50465673828125,9.830911636352539,-0.07357929646968842,-0.1579262912273407
1708009837741212400,16.52321240234375,9.830911636352539,-0.08554340898990631,-0.16271193325519562
1708009837759767800,16.541767822265626,9.835697174072266,-0.08075776696205139,-0.15074782073497772
1708009837778323500,16.560323486328127,9.835697174072266,-0.08554340898990631,-0.14835500717163086
1708009837796878800,16.57887890625,9.818947792053223,-0.08075776696205139,-0.1579262912273407
1708009837815434500,16.5974345703125,9.82373332977295,-0.07118647545576096,-0.1698904037475586
1708009837833990000,16.615989990234375,9.828518867492676,-0.06640082597732544,-0.16749759018421173
1708009837852545500,16.634545654296875,9.818947792053223,-0.07836493849754333,-0.16271193325519562
1708009837871101000,16.653100830078124,9.835697174072266,-0.07836493849754333,-0.14835500717163086
1708009837889656600,16.671656494140624,9.833304405212402,-0.07357929646968842,-0.16271193325519562
1708009837908212000,16.6902119140625,9.823135375976562,-0.06640082597732544,-0.17228323221206665
1708009837926767600,16.708767578125,9.82373332977295,-0.07357929646968842,-0.17228323221206665
1708009837945323000,16.727322998046876,9.826126098632812,-0.06640082597732544,-0.16031911969184875
1708009837963878700,16.745878662109376,9.835697174072266,-0.08075776696205139,-0.1698904037475586
1708009837982434000,16.76443408203125,9.826126098632812,-0.08075776696205139,-0.1579262912273407
1708009838000989700,16.78298974609375,9.830911636352539,-0.08315058797597885,-0.1579262912273407
1708009838019545000,16.801545166015625,9.828518867492676,-0.07597211748361588,-0.1579262912273407
1708009838038100700,16.820100830078125,9.81655502319336,-0.08554340898990631,-0.16749759018421173
1708009838056656100,16.83865625,9.828518867492676,-0.07836493849754333,-0.16749759018421173
1708009838075211800,16.857211669921874,9.830911636352539,-0.07357929646968842,-0.17228323221206665
1708009838093767200,16.87576708984375,9.826126098632812,-0.07836493849754333,-0.16031911969184875
1708009838112322800,16.89432275390625,9.82373332977295,-0.09032905846834183,-0.14356936514377594
1708009838130878200,16.912878173828126,9.81655502319336,-0.07357929646968842,-0.1579262912273407
1708009838149433900,16.931433837890626,9.828518867492676,-0.0687936544418335,-0.16031911969184875
1708009838167989200,16.9499892578125,9.830911636352539,-0.07597211748361588,-0.16271193325519562
1708009838186545000,16.968544921875,9.82373332977295,-0.07836493849754333,-0.15074782073497772
1708009838205100300,16.987100341796875,9.828518867492676,-0.0687936544418335,-0.15553347766399384
1708009838223656000,17.005656005859375,9.818947792053223,-0.07597211748361588,-0.16510476171970367
1708009838242211300,17.02421142578125,9.828518867492676,-0.0687936544418335,-0.16749759018421173
1708009838260767000,17.04276708984375,9.821340560913086,-0.07597211748361588,-0.1746760457754135
1708009838279322400,17.061322265625,9.828518867492676,-0.08075776696205139,-0.14835500717163086
1708009838297878000,17.0798779296875,9.818947792053223,-0.08315058797597885,-0.15553347766399384
1708009838316433400,17.098433349609376,9.835697174072266,-0.07357929646968842,-0.15553347766399384
1708009838334989000,17.116989013671876,9.828518867492676,-0.08075776696205139,-0.16510476171970367
1708009838353544400,17.13554443359375,9.826126098632812,-0.07597211748361588,-0.1698904037475586
1708009838372100000,17.15410009765625,9.82373332977295,-0.09032905846834183,-0.1579262912273407
1708009838390655700,17.17265576171875,9.835697174072266,-0.06640082597732544,-0.16031911969184875
1708009838409211100,17.191211181640625,9.826126098632812,-0.07118647545576096,-0.1579262912273407
1708009838427766800,17.209766845703125,9.828518867492676,-0.08793623000383377,-0.16510476171970367
1708009838446322200,17.228322265625,9.835099220275879,-0.08075776696205139,-0.17946170270442963
1708009838464877800,17.2468779296875,9.830911636352539,-0.06640082597732544,-0.15074782073497772
1708009838483433200,17.26543310546875,9.833304405212402,-0.09272187948226929,-0.14356936514377594
1708009838501988900,17.28398876953125,9.82373332977295,-0.07597211748361588,-0.14835500717163086
1708009838520544300,17.302544189453126,9.818947792053223,-0.0687936544418335,-0.1746760457754135
1708009838539100000,17.321099853515626,9.828518867492676,-0.07118647545576096,-0.1746760457754135
1708009838557655300,17.3396552734375,9.828518867492676,-0.08554340898990631,-0.16510476171970367
1708009838576211000,17.3582109375,9.835697174072266,-0.08315058797597885,-0.16031911969184875
1708009838594766300,17.376766357421875,9.833304405212402,-0.0687936544418335,-0.16510476171970367
1708009838613322000,17.395322021484375,9.828518867492676,-0.07836493849754333,-0.17228323221206665
1708009838631877600,17.413877685546876,9.826126098632812,-0.07357929646968842,-0.16749759018421173
1708009838650433000,17.43243310546875,9.828518867492676,-0.06400800496339798,-0.16271193325519562
1708009838668988700,17.45098876953125,9.818947792053223,-0.08075776696205139,-0.1459621787071228
1708009838687544000,17.4695439453125,9.826126098632812,-0.08793623000383377,-0.1579262912273407
1708009838706099700,17.488099609375,9.828518867492676,-0.0687936544418335,-0.1746760457754135
1708009838724655000,17.506655029296876,9.821340560913086,-0.07357929646968842,-0.16510476171970367
1708009838743210800,17.525210693359377,9.82373332977295,-0.0975075215101242,-0.1579262912273407
1708009838761766100,17.54376611328125,9.828518867492676,-0.07597211748361588,-0.14356936514377594
1708009838780321800,17.56232177734375,9.830911636352539,-0.08075776696205139,-0.16271193325519562
1708009838798877200,17.580877197265625,9.826126098632812,-0.07118647545576096,-0.16031911969184875
1708009838817432800,17.599432861328125,9.82373332977295,-0.08075776696205139,-0.16271193325519562
1708009838835988500,17.617988525390626,9.821340560913086,-0.07357929646968842,-0.15314064919948578
1708009838854544000,17.6365439453125,9.82373332977295,-0.07836493849754333,-0.15074782073497772
1708009838873099500,17.655099609375,9.821340560913086,-0.07118647545576096,-0.1746760457754135
1708009838891655000,17.673655029296874,9.828518867492676,-0.07357929646968842,-0.17228323221206665
1708009838910210600,17.69221044921875,9.818947792053223,-0.07357929646968842,-0.15553347766399384
1708009838928766000,17.710765869140626,9.830911636352539,-0.08793623000383377,-0.15553347766399384
1708009838947321600,17.729321533203127,9.830911636352539,-0.08315058797597885,-0.15314064919948578
1708009838965877000,17.747876953125,9.827920913696289,-0.07357929646968842,-0.1698904037475586
1708009838984432600,17.7664326171875,9.827920913696289,-0.07597211748361588,-0.17228323221206665
1708009839002988000,17.784988037109375,9.818947792053223,-0.08075776696205139,-0.15074782073497772
1708009839021543700,17.803543701171876,9.818947792053223,-0.09032905846834183,-0.15074782073497772
1708009839040099300,17.822099365234376,9.81655502319336,-0.07597211748361588,-0.15553347766399384
1708009839058654700,17.84065478515625,9.830911636352539,-0.08554340898990631,-0.1579262912273407
1708009839077210400,17.85921044921875,9.826126098632812,-0.07597211748361588,-0.16510476171970367
1708009839095765800,17.877765869140624,9.830911636352539,-0.08075776696205139,-0.16510476171970367
1708009839114321400,17.8963212890625,9.832706451416016,-0.07597211748361588,-0.1698904037475586
1708009839132876800,17.914876708984377,9.837491989135742,-0.07357929646968842,-0.16271193325519562
1708009839151432400,17.933432373046877,9.8207426071167,-0.07417750358581543,-0.16271193325519562
1708009839169988000,17.951988037109373,9.823135375976562,-0.08075776696205139,-0.16031911969184875
1708009839188543500,17.97054345703125,9.818947792053223,-0.08075776696205139,-0.15553347766399384
1708009839207099100,17.98909912109375,9.830313682556152,-0.07836493849754333,-0.16749759018421173
1708009839225654500,18.007654541015626,9.823135375976562,-0.06699903309345245,-0.1698904037475586
1708009839244210200,18.026210205078126,9.818947792053223,-0.08315058797597885,-0.16031911969184875
1708009839262765600,18.044765625,9.828518867492676,-0.064606212079525,-0.15314064919948578
1708009839281321200,18.0633212890625,9.826126098632812,-0.08554340898990631,-0.1579262912273407
1708009839299876900,18.081876953125,9.827920913696289,-0.07357929646968842,-0.16510476171970367
1708009839318432300,18.100432373046875,9.830313682556152,-0.07357929646968842,-0.1746760457754135
1708009839336988000,18.11898779296875,9.8207426071167,-0.07178468257188797,-0.1579262912273407
1708009839355543300,18.137543212890623,9.818947792053223,-0.0933200865983963,-0.15553347766399384
1708009839374099000,18.156098876953124,9.830911636352539,-0.08075776696205139,-0.15074782073497772
1708009839392654300,18.174654296875,9.821340560913086,-0.08135596662759781,-0.1579262912273407
1708009839411210000,18.1932099609375,9.818947792053223,-0.08374879509210587,-0.15314064919948578
1708009839429765400,18.211765380859376,9.828518867492676,-0.08793623000383377,-0.15314064919948578
1708009839448321000,18.230321044921876,9.8207426071167,-0.06699903309345245,-0.16510476171970367
1708009839466876700,18.248876708984376,9.835099220275879,-0.07357929646968842,-0.17706887423992157
1708009839485432000,18.26743212890625,9.832706451416016,-0.08075776696205139,-0.17228323221206665
1708009839503987700,18.28598779296875,9.830313682556152,-0.08075776696205139,-0.15553347766399384
1708009839522543000,18.304543212890625,9.832706451416016,-0.08075776696205139,-0.15553347766399384
1708009839541098800,18.3230986328125,9.818349838256836,-0.07836493849754333,-0.17228323221206665
1708009839559654400,18.341654296875,9.827920913696289,-0.07597211748361588,-0.1698904037475586
1708009839578209800,18.360209716796874,9.818947792053223,-0.08315058797597885,-0.1579262912273407
1708009839596765400,18.378765380859374,9.835697174072266,-0.07357929646968842,-0.14356936514377594
1708009839615320800,18.39732080078125,9.828518867492676,-0.07357929646968842,-0.14356936514377594
1708009839633876500,18.41587646484375,9.826126098632812,-0.07118647545576096,-0.16031911969184875
1708009839652432000,18.434431884765626,9.832706451416016,-0.07597211748361588,-0.1698904037475586
1708009839670987500,18.452987548828126,9.818947792053223,-0.07357929646968842,-0.1579262912273407
1708009839689543200,18.471543212890627,9.82373332977295,-0.08793623000383377,-0.16749759018421173
1708009839708098600,18.4900986328125,9.821340560913086,-0.07118647545576096,-0.16031911969184875
1708009839726654200,18.508654296875,9.823135375976562,-0.07357929646968842,-0.16749759018421173
1708009839745209600,18.527209716796875,9.818947792053223,-0.08554340898990631,-0.14835500717163086
1708009839763765200,18.54576513671875,9.828518867492676,-0.07836493849754333,-0.16510476171970367
1708009839782320600,18.564320556640624,9.837491989135742,-0.07118647545576096,-0.16749759018421173
1708009839800876300,18.582876220703124,9.828518867492676,-0.07357929646968842,-0.16749759018421173
1708009839819432000,18.601431884765624,9.840482711791992,-0.08075776696205139,-0.15074782073497772
1708009839837987300,18.6199873046875,9.830911636352539,-0.07118647545576096,-0.1579262912273407
1708009839856543000,18.63854296875,9.827920913696289,-0.07597211748361588,-0.16510476171970367
1708009839875098400,18.657098388671876,9.826126098632812,-0.07836493849754333,-0.1579262912273407
1708009839893654000,18.675654052734377,9.826126098632812,-0.07357929646968842,-0.15314064919948578
1708009839912209700,18.694209716796873,9.835099220275879,-0.07118647545576096,-0.16031911969184875
1708009839930765000,18.71276513671875,9.825528144836426,-0.07597211748361588,-0.16749759018421173
1708009839949320700,18.73132080078125,9.826126098632812,-0.06400800496339798,-0.16510476171970367
1708009839967876000,18.7498759765625,9.837491989135742,-0.0687936544418335,-0.16271193325519562
1708009839986431700,18.768431640625,9.832706451416016,-0.08554340898990631,-0.16749759018421173
1708009840004987400,18.7869873046875,9.823135375976562,-0.06400800496339798,-0.1746760457754135
1708009840023542800,18.805542724609374,9.830313682556152,-0.0687936544418335,-0.16510476171970367
1708009840042098400,18.824098388671874,9.82373332977295,-0.08793623000383377,-0.15553347766399384
1708009840060653800,18.84265380859375,9.828518867492676,-0.07597211748361588,-0.15074782073497772
1708009840079209500,18.86120947265625,9.830911636352539,-0.07357929646968842,-0.15553347766399384
1708009840097765000,18.87976513671875,9.827920913696289,-0.07597211748361588,-0.16749759018421173
1708009840116320500,18.898320556640623,9.826126098632812,-0.08315058797597885,-0.16271193325519562
1708009840134876200,18.916876220703124,9.830911636352539,-0.08075776696205139,-0.15074782073497772
1708009840153431800,18.935431884765624,9.823135375976562,-0.08614161610603333,-0.1579262912273407
1708009840171987200,18.9539873046875,9.827920913696289,-0.07597211748361588,-0.16749759018421173
1708009840190542800,18.97254296875,9.830313682556152,-0.08374879509210587,-0.15553347766399384
1708009840209098200,18.99109814453125,9.830313682556152,-0.07836493849754333,-0.1579262912273407
1708009840227654000,19.00965380859375,9.823135375976562,-0.07597211748361588,-0.16510476171970367
1708009840246209300,19.028209228515625,9.825528144836426,-0.06699903309345245,-0.16031911969184875
1708009840264765000,19.046764892578125,9.825528144836426,-0.06939185410737991,-0.16031911969184875
1708009840283320600,19.065320556640625,9.825528144836426,-0.06939185410737991,-0.16510476171970367
1708009840301876000,19.0838759765625,9.827920913696289,-0.09511470049619675,-0.16510476171970367
1708009840320431600,19.102431640625,9.823135375976562,-0.064606212079525,-0.1698904037475586
1708009840338987300,19.1209873046875,9.832706451416016,-0.06400800496339798,-0.17228323221206665
1708009840357542700,19.139542724609374,9.826126098632812,-0.08554340898990631,-0.15553347766399384
1708009840376098300,19.158098388671874,9.826126098632812,-0.064606212079525,-0.15314064919948578
1708009840394653700,19.17665380859375,9.827920913696289,-0.07357929646968842,-0.16271193325519562
1708009840413209300,19.195209228515626,9.825528144836426,-0.07597211748361588,-0.16271193325519562
1708009840431765000,19.213764892578126,9.832706451416016,-0.07597211748361588,-0.1579262912273407
1708009840450320400,19.2323203125,9.830911636352539,-0.07118647545576096,-0.14835500717163086
1708009840468876000,19.2508759765625,9.823135375976562,-0.07597211748361588,-0.16510476171970367
1708009840487431400,19.269431396484375,9.823135375976562,-0.08075776696205139,-0.16271193325519562
1708009840505987000,19.287987060546875,9.825528144836426,-0.08315058797597885,-0.16271193325519562
1708009840524542700,19.306542724609375,9.825528144836426,-0.08793623000383377,-0.16510476171970367
1708009840543098000,19.32509814453125,9.826126098632812,-0.07836493849754333,-0.16031911969184875
1708009840561653800,19.34365380859375,9.830313682556152,-0.08075776696205139,-0.16510476171970367
1708009840580209400,19.36220947265625,9.830313682556152,-0.07836493849754333,-0.16749759018421173
1708009840598764800,19.380764892578124,9.823135375976562,-0.08075776696205139,-0.16271193325519562
1708009840617320400,19.399320556640625,9.825528144836426,-0.08315058797597885,-0.1698904037475586
1708009840635875800,19.417875732421876,9.828518867492676,-0.07597211748361588,-0.15553347766399384
1708009840654431500,19.436431396484377,9.827920913696289,-0.07836493849754333,-0.17228323221206665
1708009840672987100,19.454987060546873,9.818947792053223,-0.06939185410737991,-0.1579262912273407
1708009840691542500,19.47354248046875,9.825528144836426,-0.07836493849754333,-0.16031911969184875
1708009840710098200,19.49209814453125,9.830313682556152,-0.07118647545576096,-0.16031911969184875
1708009840728653800,19.51065380859375,9.826126098632812,-0.06400800496339798,-0.16031911969184875
1708009840747209200,19.529209228515626,9.82373332977295,-0.07836493849754333,-0.16510476171970367
1708009840765764900,19.547764892578126,9.833304405212402,-0.07118647545576096,-0.15553347766399384
1708009840784320300,19.5663203125,9.82373332977295,-0.08793623000383377,-0.14356936514377594
1708009840802876000,19.5848759765625,9.82373332977295,-0.08554340898990631,-0.15314064919948578
1708009840821431600,19.603431640625,9.8207426071167,-0.06400800496339798,-0.1818545162677765
1708009840839987000,19.621987060546875,9.82373332977295,-0.08554340898990631,-0.16031911969184875
1708009840858542600,19.64054248046875,9.840482711791992,-0.07836493849754333,-0.15553347766399384
1708009840877098200,19.65909814453125,9.830911636352539,-0.08315058797597885,-0.16031911969184875
1708009840895653600,19.677653564453124,9.830911636352539,-0.07836493849754333,-0.1698904037475586
1708009840914209300,19.696209228515624,9.825528144836426,-0.0687936544418335,-0.17706887423992157
1708009840932764700,19.7147646484375,9.832706451416016,-0.07178468257188797,-0.15553347766399384
1708009840951320300,19.7333203125,9.826126098632812,-0.08793623000383377,-0.15074782073497772
1708009840969876000,19.7518759765625,9.823135375976562,-0.07417750358581543,-0.15074782073497772
1708009840988431400,19.770431396484376,9.8207426071167,-0.06699903309345245,-0.1698904037475586
1708009841006987000,19.788987060546877,9.827920913696289,-0.08075776696205139,-0.1746760457754135
1708009841025542700,19.807542724609377,9.839884757995605,-0.06400800496339798,-0.16031911969184875
1708009841044098000,19.82609814453125,9.835099220275879,-0.08554340898990631,-0.16271193325519562
1708009841062653700,19.84465380859375,9.832706451416016,-0.07597211748361588,-0.16031911969184875
1708009841081209300,19.863209228515625,9.823135375976562,-0.07836493849754333,-0.1698904037475586
1708009841099764700,19.8817646484375,9.830313682556152,-0.06699903309345245,-0.16031911969184875
1708009841118320400,19.9003203125,9.830313682556152,-0.09032905846834183,-0.16749759018421173
1708009841136876000,19.9188759765625,9.830313682556152,-0.059820566326379776,-0.15553347766399384
1708009841155431400,19.937431396484374,9.830911636352539,-0.08075776696205139,-0.15553347766399384
1708009841173987000,19.955987060546875,9.825528144836426,-0.08315058797597885,-0.16510476171970367
1708009841192542500,19.97454248046875,9.825528144836426,-0.07357929646968842,-0.1746760457754135
1708009841211098000,19.99309814453125,9.830313682556152,-0.0687936544418335,-0.16271193325519562
1708009841229653800,20.01165380859375,9.821340560913086,-0.09032905846834183,-0.15074782073497772
1708009841248209200,20.030209228515623,9.826126098632812,-0.07118647545576096,-0.14835500717163086
1708009841266764800,20.048764892578124,9.818349838256836,-0.08554340898990631,-0.1698904037475586
1708009841285320400,20.067320556640624,9.827920913696289,-0.0687936544418335,-0.18424734473228455
1708009841303875800,20.085875732421876,9.8207426071167,-0.08075776696205139,-0.16510476171970367
1708009841322431500,20.104431396484376,9.839884757995605,-0.07896314561367035,-0.15314064919948578
1708009841340987000,20.12298681640625,9.827920913696289,-0.07657032459974289,-0.16510476171970367
1708009841359542500,20.14154248046875,9.825528144836426,-0.07178468257188797,-0.1698904037475586
1708009841378098200,20.16009814453125,9.81356430053711,-0.07417750358581543,-0.17706887423992157
1708009841396653800,20.17865380859375,9.8207426071167,-0.07417750358581543,-0.15553347766399384
1708009841415209200,20.197209228515625,9.835099220275879,-0.08135596662759781,-0.16031911969184875
1708009841433764900,20.215764892578125,9.837491989135742,-0.062213387340307236,-0.1579262912273407
1708009841452320500,20.234320556640625,9.832706451416016,-0.08135596662759781,-0.16271193325519562
1708009841470876000,20.2528759765625,9.825528144836426,-0.06939185410737991,-0.1579262912273407
1708009841489431600,20.271431640625,9.825528144836426,-0.08135596662759781,-0.1698904037475586
1708009841507987000,20.289987060546874,9.830313682556152,-0.05742774158716202,-0.16031911969184875
1708009841526542600,20.30854248046875,9.832706451416016,-0.08135596662759781,-0.14835500717163086
1708009841545098200,20.32709814453125,9.808777809143066,-0.08614161610603333,-0.1579262912273407
1708009841563653600,20.345653564453126,9.823135375976562,-0.07178468257188797,-0.1698904037475586
1708009841582209300,20.364209228515627,9.8207426071167,-0.06939185410737991,-0.16271193325519562
1708009841600765000,20.382764892578123,9.832706451416016,-0.0933200865983963,-0.15314064919948578
1708009841619320300,20.4013203125,9.825528144836426,-0.07417750358581543,-0.15074782073497772
1708009841637876000,20.4198759765625,9.832706451416016,-0.07657032459974289,-0.16510476171970367
1708009841656431600,20.438431640625,9.830313682556152,-0.07178468257188797,-0.16749759018421173
1708009841674987000,20.456987060546876,9.8207426071167,-0.07178468257188797,-0.16271193325519562
1708009841693542700,20.475542724609376,9.832706451416016,-0.07417750358581543,-0.16031911969184875
1708009841712098300,20.494098388671876,9.815957069396973,-0.07657032459974289,-0.16271193325519562
1708009841730653700,20.51265380859375,9.823135375976562,-0.06699903309345245,-0.1698904037475586
1708009841749209300,20.531209228515625,9.827920913696289,-0.06939185410737991,-0.1579262912273407
1708009841767765000,20.549764892578125,9.833304405212402,-0.07896314561367035,-0.1459621787071228
1708009841786320400,20.5683203125,9.838089942932129,-0.08554340898990631,-0.14835500717163086
1708009841804876000,20.5868759765625,9.823135375976562,-0.07178468257188797,-0.1698904037475586
1708009841823431700,20.605431640625,9.837491989135742,-0.07657032459974289,-0.1579262912273407
1708009841841987000,20.623987060546874,9.825528144836426,-0.0933200865983963,-0.15314064919948578
1708009841860542700,20.642542724609374,9.814162254333496,-0.07896314561367035,-0.15314064919948578
1708009841879098400,20.661098388671874,9.825528144836426,-0.064606212079525,-0.17228323221206665
1708009841897653800,20.67965380859375,9.825528144836426,-0.07657032459974289,-0.17706887423992157
1708009841916209400,20.69820947265625,9.82373332977295,-0.08614161610603333,-0.14835500717163086
1708009841934765000,20.71676513671875,9.830911636352539,-0.08793623000383377,-0.15074782073497772
1708009841953320400,20.735320556640627,9.830313682556152,-0.06161518394947052,-0.16271193325519562
1708009841971876000,20.7538759765625,9.825528144836426,-0.0687936544418335,-0.16749759018421173
1708009841990431700,20.772431640625,9.833304405212402,-0.08554340898990631,-0.1459621787071228
1708009842008987100,20.790987060546875,9.840482711791992,-0.08315058797597885,-0.14117653667926788
1708009842027542800,20.809542724609376,9.837491989135742,-0.07597211748361588,-0.16749759018421173
1708009842046098400,20.828098388671876,9.818947792053223,-0.07357929646968842,-0.16271193325519562
1708009842064653800,20.84665380859375,9.80937671661377,-0.08075776696205139,-0.1579262912273407
1708009842083209500,20.86520947265625,9.828518867492676,-0.06640082597732544,-0.15314064919948578
1708009842101765000,20.88376513671875,9.826126098632812,-0.09272187948226929,-0.15314064919948578
1708009842120320500,20.902320556640625,9.827920913696289,-0.07836493849754333,-0.16749759018421173
1708009842138876200,20.920876220703125,9.839884757995605,-0.05922235921025276,-0.16749759018421173
1708009842157431800,20.939431884765625,9.830313682556152,-0.08554340898990631,-0.16510476171970367
1708009842175987200,20.9579873046875,9.833304405212402,-0.07836493849754333,-0.1579262912273407
1708009842194542800,20.97654296875,9.826126098632812,-0.07597211748361588,-0.1579262912273407
1708009842213098500,20.995098388671874,9.82373332977295,-0.08075776696205139,-0.16271193325519562
1708009842231654000,21.01365380859375,9.818947792053223,-0.08315058797597885,-0.16271193325519562
1708009842250209500,21.03220947265625,9.821340560913086,-0.0687936544418335,-0.16510476171970367
1708009842268765200,21.05076513671875,9.830313682556152,-0.08075776696205139,-0.16510476171970367
1708009842287320600,21.069320556640626,9.832706451416016,-0.07118647545576096,-0.15553347766399384
1708009842305876200,21.087876220703127,9.833304405212402,-0.06640082597732544,-0.1459621787071228
1708009842324432000,21.106431884765627,9.839884757995605,-0.07178468257188797,-0.1579262912273407
1708009842342987300,21.1249873046875,9.823135375976562,-0.05742774158716202,-0.16510476171970367
1708009842361543000,21.14354296875,9.8207426071167,-0.08135596662759781,-0.1698904037475586
1708009842380098600,21.1620986328125,9.823135375976562,-0.08853443711996078,-0.15314064919948578
1708009842398654200,21.180654296875,9.827920913696289,-0.07896314561367035,-0.15553347766399384
1708009842417209600,21.199209716796876,9.8207426071167,-0.07657032459974289,-0.17228323221206665
1708009842435765200,21.21776513671875,9.823135375976562,-0.08135596662759781,-0.16271193325519562
1708009842454321000,21.23632080078125,9.832706451416016,-0.07178468257188797,-0.16271193325519562
1708009842472876300,21.254876220703125,9.827920913696289,-0.08135596662759781,-0.16031911969184875
1708009842491432000,21.273431884765625,9.8207426071167,-0.08135596662759781,-0.16031911969184875
1708009842509987600,21.291987548828125,9.825528144836426,-0.07417750358581543,-0.17228323221206665
1708009842528543000,21.31054296875,9.818349838256836,-0.07657032459974289,-0.1698904037475586
1708009842547098600,21.3290986328125,9.8207426071167,-0.07417750358581543,-0.16031911969184875
1708009842565654300,21.347654296875,9.825528144836426,-0.06939185410737991,-0.16031911969184875
1708009842584209700,21.366209716796874,9.825528144836426,-0.07657032459974289,-0.15553347766399384
1708009842602765300,21.384765380859374,9.830313682556152,-0.07657032459974289,-0.16031911969184875
1708009842621321000,21.403321044921874,9.835099220275879,-0.06699903309345245,-0.15553347766399384
1708009842639876600,21.421876708984374,9.818349838256836,-0.10049854964017868,-0.15553347766399384
1708009842658432000,21.440431884765626,9.830313682556152,-0.07417750358581543,-0.16031911969184875
1708009842676987600,21.458987548828127,9.832706451416016,-0.07417750358581543,-0.15553347766399384
1708009842695543300,21.477543212890627,9.818349838256836,-0.07896314561367035,-0.16271193325519562
1708009842714098700,21.4960986328125,9.815957069396973,-0.07896314561367035,-0.1746760457754135
1708009842732654300,21.514654296875,9.832706451416016,-0.062213387340307236,-0.17946170270442963
1708009842751210000,21.5332099609375,9.835099220275879,-0.08374879509210587,-0.15553347766399384
1708009842769765400,21.551765380859376,9.823135375976562,-0.07896314561367035,-0.14835500717163086
1708009842788321000,21.570321044921876,9.825528144836426,-0.08135596662759781,-0.1579262912273407
1708009842806876700,21.588876708984376,9.825528144836426,-0.07178468257188797,-0.17706887423992157
1708009842825432000,21.60743212890625,9.839884757995605,-0.07178468257188797,-0.17228323221206665
1708009842843987700,21.62598779296875,9.839884757995605,-0.07896314561367035,-0.14117653667926788
1708009842862543400,21.64454345703125,9.832706451416016,-0.08614161610603333,-0.14835500717163086
1708009842881098800,21.6630986328125,9.823135375976562,-0.06699903309345245,-0.1698904037475586
1708009842899654400,21.681654296875,9.825528144836426,-0.06699903309345245,-0.1698904037475586
1708009842918210000,21.7002099609375,9.826126098632812,-0.064606212079525,-0.14117653667926788
1708009842936765700,21.718765625,9.837491989135742,-0.08135596662759781,-0.1459621787071228
1708009842955321000,21.737321044921874,9.830313682556152,-0.07896314561367035,-0.16749759018421173
1708009842973876700,21.755876708984374,9.830313682556152,-0.07178468257188797,-0.1818545162677765
1708009842992432400,21.774432373046874,9.825528144836426,-0.07657032459974289,-0.16749759018421173
1708009843010987800,21.79298779296875,9.823135375976562,-0.09092725813388824,-0.16510476171970367
1708009843029543400,21.81154345703125,9.823135375976562,-0.07657032459974289,-0.16031911969184875
1708009843048099000,21.83009912109375,9.823135375976562,-0.07657032459974289,-0.16749759018421173
1708009843066654700,21.84865478515625,9.830313682556152,-0.07896314561367035,-0.17228323221206665
1708009843085210000,21.867210205078123,9.827920913696289,-0.07896314561367035,-0.16749759018421173
1708009843103765800,21.885765869140624,9.832706451416016,-0.06699903309345245,-0.15074782073497772
1708009843122321400,21.9043212890625,9.8207426071167,-0.08135596662759781,-0.16031911969184875
1708009843140877000,21.922876953125,9.827920913696289,-0.07896314561367035,-0.1579262912273407
1708009843159432400,21.941432373046876,9.830313682556152,-0.07657032459974289,-0.16031911969184875
1708009843177988000,21.959988037109376,9.830313682556152,-0.07417750358581543,-0.15074782073497772
1708009843196543700,21.978543701171876,9.825528144836426,-0.07417750358581543,-0.14835500717163086
1708009843215099100,21.99709912109375,9.825528144836426,-0.062213387340307236,-0.1698904037475586
1708009843233654800,22.01565478515625,9.835099220275879,-0.062213387340307236,-0.16510476171970367
1708009843252210400,22.03421044921875,9.830313682556152,-0.07417750358581543,-0.17228323221206665
1708009843270766000,22.05276611328125,9.8207426071167,-0.064606212079525,-0.16510476171970367
1708009843289321500,22.071321533203125,9.830313682556152,-0.08374879509210587,-0.17228323221206665
1708009843307877000,22.089877197265626,9.818349838256836,-0.07417750358581543,-0.16510476171970367
1708009843326432800,22.108432861328126,9.835099220275879,-0.08135596662759781,-0.17228323221206665
1708009843344988200,22.12698828125,9.835099220275879,-0.08853443711996078,-0.15553347766399384
1708009843363543800,22.145543701171874,9.835099220275879,-0.08853443711996078,-0.16510476171970367
1708009843382099500,22.164099365234375,9.842277526855469,-0.06939185410737991,-0.1698904037475586
1708009843400654800,22.18265478515625,9.832706451416016,-0.07657032459974289,-0.15553347766399384
1708009843419210500,22.20121044921875,9.835099220275879,-0.08853443711996078,-0.1579262912273407
1708009843437766100,22.21976611328125,9.842277526855469,-0.07178468257188797,-0.14835500717163086
1708009843456321800,22.23832177734375,9.825528144836426,-0.07417750358581543,-0.16510476171970367
1708009843474877200,22.256877197265624,9.825528144836426,-0.07417750358581543,-0.16271193325519562
1708009843493432800,22.275432861328124,9.827920913696289,-0.08614161610603333,-0.15074782073497772
1708009843511988500,22.293988525390624,9.832706451416016,-0.07657032459974289,-0.1579262912273407
1708009843530544000,22.312544189453124,9.832706451416016,-0.07417750358581543,-0.17228323221206665
1708009843549099500,22.331099609375,9.825528144836426,-0.07417750358581543,-0.17228323221206665
1708009843567655200,22.3496552734375,9.8207426071167,-0.064606212079525,-0.16031911969184875
1708009843586210800,22.3682109375,9.827920913696289,-0.07657032459974289,-0.16510476171970367
1708009843604766200,22.38676611328125,9.827920913696289,-0.08374879509210587,-0.16271193325519562
1708009843623321900,22.40532177734375,9.830313682556152,-0.07178468257188797,-0.16749759018421173
1708009843641877500,22.42387744140625,9.818349838256836,-0.07896314561367035,-0.16031911969184875
1708009843660433200,22.44243310546875,9.827920913696289,-0.08614161610603333,-0.16510476171970367
1708009843678988500,22.460988525390626,9.827920913696289,-0.06939185410737991,-0.17228323221206665
1708009843697544200,22.479544189453126,9.839884757995605,-0.06939185410737991,-0.15314064919948578
1708009843716099800,22.498099853515626,9.827920913696289,-0.09571290761232376,-0.16031911969184875
1708009843734655500,22.516655517578126,9.827920913696289,-0.064606212079525,-0.16031911969184875
1708009843753211000,22.5352109375,9.835099220275879,-0.0687936544418335,-0.1698904037475586
1708009843771766500,22.5537666015625,9.827920913696289,-0.08135596662759781,-0.15314064919948578
1708009843790322200,22.572322265625,9.825528144836426,-0.08374879509210587,-0.1459621787071228
1708009843808877600,22.590877685546875,9.835099220275879,-0.064606212079525,-0.16510476171970367
1708009843827433200,22.60943310546875,9.827920913696289,-0.064606212079525,-0.16749759018421173
1708009843845988900,22.62798876953125,9.823135375976562,-0.1094716340303421,-0.16749759018421173
1708009843864544500,22.64654443359375,9.847063064575195,-0.035892341285943985,-0.1579262912273407
1708009843883100000,22.665099853515624,9.835099220275879,-0.07178468257188797,-0.17228323221206665
1708009843901655600,22.683655517578124,9.8207426071167,-0.11904292553663254,-0.16510476171970367
1708009843920211200,22.702211181640624,9.827920913696289,-0.05024927482008934,-0.1579262912273407
1708009843938766600,22.7207666015625,9.839884757995605,-0.07118647545576096,-0.17228323221206665
1708009843957322200,22.739322265625,9.811769485473633,-0.1052841991186142,-0.1579262912273407
1708009843975878000,22.7578779296875,9.830313682556152,-0.04785645380616188,-0.1746760457754135
1708009843994433500,22.77643359375,9.832706451416016,-0.06699903309345245,-0.15314064919948578
1708009844012989000,22.794989013671874,9.830911636352539,-0.10707881301641464,-0.14356936514377594
1708009844031544600,22.813544677734374,9.839884757995605,-0.07417750358581543,-0.15553347766399384
1708009844050100200,22.832100341796874,9.832706451416016,-0.07597211748361588,-0.1746760457754135
1708009844068655900,22.85065576171875,9.825528144836426,-0.08135596662759781,-0.17228323221206665
1708009844087211300,22.869211181640626,9.826126098632812,-0.07896314561367035,-0.13878370821475983
1708009844105767000,22.887766845703126,9.837491989135742,-0.064606212079525,-0.14835500717163086
1708009844124322600,22.906322509765626,9.832706451416016,-0.064606212079525,-0.17228323221206665
1708009844142878000,22.9248779296875,9.823135375976562,-0.064606212079525,-0.16749759018421173
1708009844161433600,22.94343359375,9.827920913696289,-0.06939185410737991,-0.16271193325519562
1708009844179989200,22.9619892578125,9.832706451416016,-0.07896314561367035,-0.14117653667926788
1708009844198545000,22.980544921875,9.825528144836426,-0.07417750358581543,-0.15314064919948578
1708009844217100300,22.999100341796876,9.827920913696289,-0.07417750358581543,-0.1746760457754135
1708009844235656000,23.017656005859376,9.825528144836426,-0.062213387340307236,-0.1579262912273407
1708009844254211600,23.036211669921876,9.832706451416016,-0.08135596662759781,-0.15553347766399384
1708009844272767200,23.054767333984376,9.830313682556152,-0.08614161610603333,-0.15553347766399384
1708009844291322600,23.073322509765624,9.830313682556152,-0.07178468257188797,-0.16749759018421173
1708009844309878300,23.091878173828125,9.837491989135742,-0.064606212079525,-0.1698904037475586
1708009844328434000,23.110433837890625,9.827920913696289,-0.08614161610603333,-0.1579262912273407
1708009844346989600,23.128989501953125,9.830313682556152,-0.07657032459974289,-0.15314064919948578
1708009844365545000,23.147544921875,9.832706451416016,-0.07896314561367035,-0.1579262912273407
1708009844384100600,23.1661005859375,9.823135375976562,-0.07896314561367035,-0.16271193325519562
1708009844402656300,23.18465625,9.825528144836426,-0.07657032459974289,-0.1698904037475586
1708009844421211600,23.203211669921874,9.832706451416016,-0.07178468257188797,-0.16031911969184875
1708009844439767300,23.221767333984374,9.82373332977295,-0.06939185410737991,-0.14835500717163086
1708009844458323000,23.240322998046874,9.823135375976562,-0.08853443711996078,-0.1579262912273407
1708009844476878300,23.25887841796875,9.832706451416016,-0.07417750358581543,-0.15314064919948578
