time,seconds_elapsed,z,y,x
1708009821414832000,0.19683203125,-0.0007635590736754239,-0.00030542362947016954,0.0004581354442052543
1708009821433387500,0.215387451171875,0.00015271181473508477,0.0006108472589403391,0.00015271181473508477
1708009821451943000,0.23394287109375,-0.00015271181473508477,0.0009162708884105086,-0.00015271181473508477
1708009821470498000,0.252498046875,-0.0004581354442052543,0.00030542362947016954,-0.0004581354442052543
1708009821489053400,0.271053466796875,-0.00015271181473508477,-0.0006108472589403391,0.0004581354442052543
1708009821507608800,0.28960888671875,0.0004581354442052543,0.0009162708884105086,-0.0007635590736754239
1708009821526164200,0.308164306640625,-0.0007635590736754239,-0.0015271181473508477,-0.0010689827613532543
1708009821544719600,0.3267197265625,-0.0004581354442052543,0.0009162708884105086,-0.0007635590736754239
1708009821563275000,0.34527490234375,-0.00015271181473508477,0,-0.0004581354442052543
1708009821581830400,0.363830322265625,-0.0004581354442052543,-0.00030542362947016954,-0.0007635590736754239
1708009821600385800,0.3823857421875,-0.00015271181473508477,-0.00030542362947016954,-0.0007635590736754239
1708009821618941000,0.40094091796875,-0.0007635590736754239,0.00030542362947016954,-0.00015271181473508477
1708009821637496300,0.419496337890625,0.0010689827613532543,0.0012216945178806782,0.00015271181473508477
1708009821656051700,0.4380517578125,0.00015271181473508477,0.0009162708884105086,-0.0016798300202935934
1708009821674607000,0.456607177734375,-0.00015271181473508477,-0.00030542362947016954,0.0007635590736754239
1708009821693162500,0.47516259765625,-0.0007635590736754239,-0.00030542362947016954,0.0004581354442052543
1708009821711718000,0.4937177734375,0.0007635590736754239,0.00030542362947016954,-0.0010689827613532543
1708009821730273300,0.512273193359375,0.0004581354442052543,-0.0009162708884105086,0.0004581354442052543
1708009821748828400,0.530828369140625,0.0004581354442052543,-0.0021379655227065086,0.00015271181473508477
1708009821767384000,0.549384033203125,-0.0010689827613532543,-0.0012216945178806782,-0.0004581354442052543
1708009821785939200,0.567939208984375,-0.0004581354442052543,-0.0012216945178806782,-0.00015271181473508477
1708009821804494600,0.58649462890625,0.0010689827613532543,0.0006108472589403391,0.0004581354442052543
1708009821823050000,0.605050048828125,-0.00015271181473508477,0.0006108472589403391,-0.00015271181473508477
1708009821841605400,0.62360546875,-0.0007635590736754239,0.0009162708884105086,0.00015271181473508477
1708009821860160800,0.642160888671875,0.0007635590736754239,0.0006108472589403391,-0.0010689827613532543
1708009821878716200,0.660716064453125,0.0004581354442052543,0,-0.00015271181473508477
1708009821897271300,0.679271240234375,0.00015271181473508477,-0.0012216945178806782,0.00015271181473508477
1708009821915826700,0.69782666015625,-0.0010689827613532543,-0.0009162708884105086,-0.0010689827613532543
1708009821934382000,0.716382080078125,0.0007635590736754239,0,-0.0016798300202935934
1708009821952937500,0.7349375,0.0007635590736754239,-0.00030542362947016954,-0.001374406274408102
1708009821971492900,0.753492919921875,0.00015271181473508477,0.0009162708884105086,-0.0004581354442052543
1708009821990048000,0.772048095703125,0.0004581354442052543,-0.0012216945178806782,-0.0010689827613532543
1708009822008603600,0.790603759765625,-0.0004581354442052543,-0.0012216945178806782,-0.0007635590736754239
1708009822027158800,0.80915869140625,-0.00015271181473508477,-0.0006108472589403391,0.00015271181473508477
1708009822045714200,0.827714111328125,0.0007635590736754239,-0.0009162708884105086,-0.0007635590736754239
1708009822064269600,0.84626953125,-0.0004581354442052543,0,-0.0004581354442052543
1708009822082825000,0.864824951171875,-0.0004581354442052543,0.0006108472589403391,0.0007635590736754239
1708009822101380000,0.883380126953125,0.0007635590736754239,-0.0006108472589403391,-0.0007635590736754239
1708009822119935700,0.901935791015625,0.0007635590736754239,-0.0012216945178806782,-0.0007635590736754239
1708009822138491000,0.920490966796875,-0.0004581354442052543,0,0.001985253533348441
1708009822157046300,0.93904638671875,-0.00015271181473508477,0.00030542362947016954,0.00015271181473508477
1708009822175601700,0.9576015625,0.001374406274408102,-0.00030542362947016954,-0.0012216945178806782
1708009822194157000,0.976156982421875,-0.0007635590736754239,-0.00030542362947016954,0.0012216945178806782
1708009822212712200,0.994712158203125,-0.0007635590736754239,0.00030542362947016954,-0.0012216945178806782
1708009822231267600,1.013267578125,0.00015271181473508477,-0.0009162708884105086,-0.0006108472589403391
1708009822249823000,1.031822998046875,-0.0007635590736754239,0.0012216945178806782,-0.0006108472589403391
1708009822268378400,1.05037841796875,0.00015271181473508477,0.00030542362947016954,-0.0006108472589403391
1708009822286933800,1.068933837890625,0.0010689827613532543,-0.0015271181473508477,0
1708009822305489200,1.0874892578125,-0.00015271181473508477,0.0009162708884105086,-0.00030542362947016954
1708009822324044300,1.106044189453125,-0.0004581354442052543,0,0.0009162708884105086
1708009822342599700,1.124599609375,0.001374406274408102,0.0009162708884105086,-0.0009162708884105086
1708009822361155000,1.143155029296875,0.0004581354442052543,0,-0.00030542362947016954
1708009822379710500,1.16171044921875,-0.0007635590736754239,0.00030542362947016954,0.00030542362947016954
1708009822398265900,1.180265869140625,0.0010689827613532543,0.0009162708884105086,0
1708009822416821200,1.1988212890625,0.00015271181473508477,0.00030542362947016954,-0.0009162708884105086
1708009822435376400,1.21737646484375,-0.0007635590736754239,0.0012216945178806782,0.0009162708884105086
1708009822453931800,1.235931884765625,-0.0007635590736754239,0.0021379655227065086,0.0024433890357613564
1708009822472487200,1.254487060546875,-0.0004581354442052543,0.00030542362947016954,0.0018325417768210173
1708009822491042600,1.27304248046875,-0.0016798300202935934,0.0006108472589403391,0.003970507066696882
1708009822509597700,1.29159765625,0.0007635590736754239,-0.0006108472589403391,0.0021379655227065086
1708009822528153300,1.3101533203125,-0.00015271181473508477,-0.0006108472589403391,0.0024433890357613564
1708009822546708500,1.32870849609375,-0.0022906772792339325,-0.0009162708884105086,0.003359660040587187
1708009822565264000,1.347263916015625,-0.00259610079228878,0.0009162708884105086,0.004886778071522713
1708009822583819300,1.3658193359375,-0.0035123717971146107,0.0009162708884105086,0.004581354558467865
1708009822602374400,1.38437451171875,-0.0065666078589856625,0.0012216945178806782,0.004734066314995289
1708009822620929800,1.4029296875,-0.005344913341104984,-0.0009162708884105086,0.0050394898280501366
1708009822639485200,1.421485107421875,-0.008704573847353458,-0.0006108472589403391,0.009009997360408306
1708009822658040600,1.44004052734375,-0.008246437646448612,0.0009162708884105086,0.014813045971095562
1708009822676596000,1.458595947265625,-0.003359660040587187,-0.00030542362947016954,0.01954711228609085
1708009822695151400,1.4771513671875,0.0009162708884105086,-0.0012216945178806782,0.025961007922887802
1708009822713706500,1.49570654296875,0.002748812548816204,-0.0012216945178806782,0.027182703837752342
1708009822732262000,1.514261962890625,0.008857285603880882,-0.0012216945178806782,0.025961007922887802
1708009822750817300,1.5328173828125,0.013438640162348747,-0.003359660040587187,0.022754060104489326
1708009822769372700,1.55137255859375,0.01252236869186163,-0.005497625097632408,0.015423892997205257
1708009822787928000,1.569927978515625,0.008399149402976036,-0.008704573847353458,0.0006108472589403391
1708009822806483500,1.5884833984375,-0.0012216945178806782,-0.007482878863811493,-0.006413896102458239
1708009822825038600,1.60703857421875,-0.008857285603880882,-0.005803049076348543,-0.010842538438737392
1708009822843594000,1.625593994140625,-0.012827792204916477,-0.002748812548816204,-0.01511846948415041
1708009822862149400,1.6441494140625,-0.0198525357991457,0.003359660040587187,-0.013744063675403595
1708009822880704800,1.662704833984375,-0.015576604753732681,0.0015271181473508477,-0.009468132629990578
1708009822899260000,1.681260009765625,-0.014813045971095562,-0.0009162708884105086,0.0035123717971146107
1708009822917815300,1.699815185546875,-0.01511846948415041,0.0010689827613532543,0.014049487188458443
1708009822936370700,1.71837060546875,-0.0024433890357613564,-0.0036650835536420345,0.018630841746926308
1708009822954926000,1.736926025390625,-0.0018325417768210173,-0.0030542362947016954,0.023212196305394173
1708009822973481500,1.7554814453125,0.008246437646448612,-0.004275931045413017,0.017561858519911766
1708009822992036900,1.774036865234375,0.013133215717971325,-0.0018325417768210173,0.010842538438737392
1708009823010592000,1.792592041015625,0.0050394898280501366,0.0006108472589403391,0.0015271181473508477
1708009823029147400,1.8111474609375,0.008399149402976036,0.0021379655227065086,-0.00992626789957285
1708009823047702800,1.829702880859375,0.009315420873463154,0.0030542362947016954,-0.011147962883114815
1708009823066258200,1.848258056640625,0.0030542362947016954,0.0030542362947016954,-0.012675080448389053
1708009823084813300,1.866813232421875,-0.006108472589403391,0.0012216945178806782,-0.013591351918876171
1708009823103368700,1.88536865234375,-0.005803049076348543,-0.0024433890357613564,-0.010689826682209969
1708009823121924000,1.903924072265625,-0.009009997360408306,-0.0006108472589403391,-0.0007635590736754239
1708009823140479500,1.9224794921875,-0.007482878863811493,-0.0012216945178806782,0.004734066314995289
1708009823159035000,1.941034912109375,-0.007482878863811493,0.0006108472589403391,0.0022906772792339325
1708009823177590000,1.959590087890625,-0.0035123717971146107,-0.0006108472589403391,0.009620844386518002
1708009823196145400,1.9781455078125,-0.0022906772792339325,0,0.007788302376866341
1708009823214700800,1.99670068359375,-0.004428642801940441,-0.0012216945178806782,0.0004581354442052543
1708009823248294100,2.030294189453125,-0.008551862090826035,-0.0006108472589403391,-0.006108472589403391
1708009823266849300,2.048849365234375,-0.006108472589403391,-0.0030542362947016954,-0.012369656935334206
1708009823285404700,2.06740478515625,-0.01038440316915512,0.0030542362947016954,-0.01725643500685692
1708009823303960000,2.0859599609375,-0.008551862090826035,0.006719320081174374,-0.02092151902616024
1708009823322515500,2.104515380859375,-0.0024433890357613564,0.0006108472589403391,-0.024128466844558716
1708009823341070800,2.12307080078125,-0.0036650835536420345,-0.0029015245381742716,-0.02229592576622963
1708009823359626000,2.1416259765625,-0.009773556143045425,-0.0018325417768210173,-0.01725643500685692
1708009823378181400,2.160181396484375,0,-0.0018325417768210173,-0.008704573847353458
1708009823396736800,2.17873681640625,0.0032069480512291193,0.005497625097632408,0.0018325417768210173
1708009823415292200,2.197292236328125,0.006413896102458239,0.007941014133393764,0.008551862090826035
1708009823433847600,2.21584765625,-0.0009162708884105086,0.007788302376866341,0.012980503961443901
1708009823452402700,2.234402587890625,-0.0021379655227065086,0.004275931045413017,0.01175880990922451
1708009823470958000,2.2529580078125,-0.0016798300202935934,0,0.012369656935334206
1708009823489513500,2.271513427734375,-0.004123218823224306,-0.006108472589403391,0.0030542362947016954
1708009823508068900,2.29006884765625,-0.013438640162348747,-0.004886778071522713,-0.007330167107284069
1708009823526624300,2.308624267578125,-0.013438640162348747,-0.0030542362947016954,-0.006719320081174374
1708009823545179600,2.3271796875,-0.0024433890357613564,-0.0012216945178806782,-0.013591351918876171
1708009823563734800,2.34573486328125,-0.006719320081174374,0.004275931045413017,-0.00992626789957285
1708009823582290200,2.364290283203125,-0.005955760832875967,0.0036650835536420345,-0.006108472589403391
1708009823600845600,2.382845458984375,-0.007788302376866341,0.0012216945178806782,0.0006108472589403391
1708009823619401000,2.40140087890625,-0.005955760832875967,-0.004275931045413017,0.0036650835536420345
1708009823637956000,2.4199560546875,-0.0065666078589856625,-0.008399149402976036,0.0068720318377017975
1708009823656511500,2.438511474609375,-0.010842538438737392,-0.00916270911693573,0.008093725889921188
1708009823675067000,2.45706689453125,-0.008399149402976036,-0.007941014133393764,0.0024433890357613564
1708009823693622300,2.475622314453125,-0.007177455350756645,-0.005497625097632408,0.0006108472589403391
1708009823712177700,2.494177734375,-0.0022906772792339325,-0.004734066314995289,-0.004275931045413017
1708009823730732800,2.51273291015625,-0.007941014133393764,-0.0030542362947016954,-0.013591351918876171
1708009823749288200,2.5312880859375,-0.009773556143045425,-0.0012216945178806782,-0.012369656935334206
1708009823767843600,2.549843505859375,0.005497625097632408,-0.0022906772792339325,-0.012980503961443901
1708009823786399000,2.56839892578125,-0.0018325417768210173,0.0018325417768210173,-0.012369656935334206
1708009823804954400,2.586954345703125,-0.006719320081174374,0.0036650835536420345,-0.010537114925682545
1708009823823509800,2.605509765625,0.0006108472589403391,-0.0018325417768210173,-0.01175880990922451
1708009823842065000,2.62406494140625,0.00259610079228878,0.0012216945178806782,-0.00992626789957285
1708009823860620300,2.642620361328125,0.001374406274408102,0.0006108472589403391,-0.0030542362947016954
1708009823879175700,2.66117578125,0.00015271181473508477,-0.0006108472589403391,-0.008704573847353458
1708009823897731000,2.67973095703125,0,-0.0012216945178806782,-0.015423892997205257
1708009823916286500,2.698286376953125,-0.004734066314995289,0.0030542362947016954,-0.005497625097632408
1708009823934841600,2.716841552734375,-0.0024433890357613564,0.004275931045413017,-0.01175880990922451
1708009823953397000,2.73539697265625,0.0018325417768210173,-0.0006108472589403391,-0.014202198944985867
1708009823971952400,2.753952392578125,-0.01588202826678753,0.0036650835536420345,-0.012827792204916477
1708009823990507800,2.7725078125,-0.011606098152697086,0.0036650835536420345,-0.008551862090826035
1708009824009063200,2.791063232421875,-0.0022906772792339325,0.0024433890357613564,-0.004886778071522713
1708009824027618600,2.80961865234375,-0.0016798300202935934,0.0012216945178806782,-0.0024433890357613564
1708009824046173700,2.828173583984375,-0.007177455350756645,0.0030542362947016954,0.0024433890357613564
1708009824064729000,2.84672900390625,0.00259610079228878,-0.0012216945178806782,0.0024433890357613564
1708009824083284500,2.865284423828125,0.004428642801940441,-0.0012216945178806782,0.004275931045413017
1708009824101840000,2.88383984375,0.004428642801940441,0.0006108472589403391,0.007330167107284069
1708009824120395300,2.902395263671875,0.008093725889921188,0.0018325417768210173,0.005497625097632408
1708009824138950400,2.920950439453125,0.0032069480512291193,0.0024433890357613564,0.0012216945178806782
1708009824157505800,2.939505859375,-0.0004581354442052543,0.0024433890357613564,0
1708009824176061200,2.958061279296875,-0.0010689827613532543,0.0012216945178806782,-0.0012216945178806782
1708009824194616600,2.976616455078125,-0.0010689827613532543,0.0006108472589403391,-0.0036650835536420345
1708009824213172000,2.995171875,-0.004734066314995289,0.0012216945178806782,-0.005497625097632408
1708009824231727400,3.013727294921875,-0.006719320081174374,0.0006108472589403391,-0.007941014133393764
1708009824250282500,3.032282470703125,-0.005344913341104984,0.0006108472589403391,-0.0006108472589403391
1708009824268838000,3.050837890625,-0.004734066314995289,-0.0012216945178806782,0
1708009824287393300,3.069393310546875,-0.004734066314995289,-0.0024433890357613564,-0.0006108472589403391
1708009824305948700,3.08794873046875,-0.0065666078589856625,-0.0012216945178806782,-0.0012216945178806782
1708009824324504000,3.106504150390625,-0.0029015245381742716,-0.0006108472589403391,0.0024433890357613564
1708009824343059200,3.12505908203125,0.005650337319821119,-0.0012216945178806782,0.0018325417768210173
1708009824361614600,3.143614501953125,0.0032069480512291193,-0.0024433890357613564,0
1708009824380170000,3.162169921875,-0.0029015245381742716,-0.0024433890357613564,-0.0006108472589403391
1708009824398725400,3.180725341796875,0.00259610079228878,-0.0035123717971146107,0
1708009824417280800,3.19928076171875,0.008704573847353458,-0.0022906772792339325,0.0006108472589403391
1708009824435836200,3.217836181640625,0.005650337319821119,-0.0012216945178806782,0.004275931045413017
1708009824454391300,3.236391357421875,-0.0022906772792339325,-0.0006108472589403391,0.0036650835536420345
1708009824472946700,3.25494677734375,0.00015271181473508477,-0.0024433890357613564,0.0012216945178806782
1708009824491502000,3.273502197265625,0.00015271181473508477,-0.0006108472589403391,0.0036650835536420345
1708009824510057500,3.292057373046875,0.00015271181473508477,0.0030542362947016954,0.005497625097632408
1708009824528612900,3.31061279296875,-0.0010689827613532543,0.0018325417768210173,0
1708009824547168300,3.329168212890625,-0.004123218823224306,0.0030542362947016954,0.0012216945178806782
1708009824565723600,3.3477236328125,-0.0004581354442052543,0.004886778071522713,0.0024433890357613564
1708009824584278800,3.36627880859375,0.004428642801940441,0.0036650835536420345,-0.0006108472589403391
1708009824602834200,3.384834228515625,-0.0010689827613532543,0.0036650835536420345,0
1708009824621389600,3.4033896484375,-0.0029015245381742716,0.0036650835536420345,-0.0012216945178806782
1708009824639945000,3.421945068359375,0.004428642801940441,0.0030542362947016954,0
1708009824658500400,3.440500244140625,0.0050394898280501366,0.0036650835536420345,0.0036650835536420345
1708009824677055700,3.4590556640625,0.001374406274408102,0.0006108472589403391,0.004275931045413017
1708009824695611000,3.47761083984375,-0.0004581354442052543,-0.0006108472589403391,0.0018325417768210173
1708009824714166300,3.496166259765625,0.0032069480512291193,-0.0018325417768210173,0.005497625097632408
1708009824732721700,3.5147216796875,0.005650337319821119,-0.0012216945178806782,0.006108472589403391
1708009824751277000,3.533277099609375,0.001985253533348441,-0.0012216945178806782,0.004275931045413017
1708009824769832400,3.55183251953125,0.00015271181473508477,-0.0018325417768210173,-0.0012216945178806782
1708009824788387800,3.570387939453125,0.00015271181473508477,-0.0024433890357613564,-0.0012216945178806782
1708009824806943200,3.588943115234375,0.0007635590736754239,-0.0012216945178806782,0.0006108472589403391
1708009824825498400,3.607498291015625,0.001985253533348441,-0.0024433890357613564,-0.0006108472589403391
1708009824844053800,3.6260537109375,-0.0016798300202935934,-0.0024433890357613564,-0.0030542362947016954
1708009824862609200,3.644609130859375,-0.005344913341104984,-0.0012216945178806782,0.0006108472589403391
1708009824881164500,3.66316455078125,0.00259610079228878,-0.0018325417768210173,-0.0018325417768210173
1708009824899720000,3.681719970703125,0.0038177953101694584,-0.0006108472589403391,0.0018325417768210173
1708009824918275300,3.700275390625,-0.0010689827613532543,0.0006108472589403391,0.0012216945178806782
1708009824936830700,3.718830810546875,0.00015271181473508477,-0.0006108472589403391,-0.0012216945178806782
1708009824955386000,3.73738623046875,0.004428642801940441,0,0.0018325417768210173
1708009824973941200,3.755941162109375,0.0038177953101694584,0,0.0024433890357613564
1708009824992496600,3.77449658203125,-0.0022906772792339325,-0.0006108472589403391,0.0012216945178806782
1708009825011052000,3.793052001953125,-0.0004581354442052543,0.0006108472589403391,0.0006108472589403391
1708009825029607400,3.811607421875,0.0007635590736754239,0.0012216945178806782,0
1708009825048162800,3.830162841796875,0.001374406274408102,0.0012216945178806782,0.0018325417768210173
1708009825066718200,3.84871826171875,-0.0004581354442052543,0.0018325417768210173,-0.0030542362947016954
1708009825085273600,3.867273681640625,-0.0035123717971146107,0,-0.0036650835536420345
1708009825103829000,3.8858291015625,-0.0010689827613532543,0,-0.0006108472589403391
1708009825122384400,3.90438427734375,0.001985253533348441,0.0006108472589403391,-0.0012216945178806782
1708009825140939500,3.922939453125,0.0007635590736754239,-0.0006108472589403391,-0.0006108472589403391
1708009825159495000,3.941494873046875,-0.0016798300202935934,0.0018325417768210173,0.0018325417768210173
1708009825178050300,3.96005029296875,0.0007635590736754239,0.0006108472589403391,0.0018325417768210173
1708009825196605700,3.978605712890625,0.006261184345930815,0,0.0006108472589403391
1708009825215161000,3.9971611328125,0.001374406274408102,0.0006108472589403391,0.0030542362947016954
1708009825233716500,4.015716552734375,-0.0016798300202935934,0.0012216945178806782,0.0006108472589403391
1708009825252271900,4.03427197265625,0.001985253533348441,0,-0.0006108472589403391
1708009825270827300,4.0528271484375,0.0007635590736754239,0,0.0006108472589403391
1708009825289382700,4.071382568359375,-0.0010689827613532543,-0.0006108472589403391,0
1708009825307937800,4.089937744140625,-0.0022906772792339325,0,-0.0036650835536420345
1708009825326493200,4.1084931640625,-0.0029015245381742716,0.0006108472589403391,-0.0012216945178806782
1708009825345048600,4.127048583984375,-0.0016798300202935934,0.0006108472589403391,0.0012216945178806782
1708009825363604000,4.14560400390625,0.0007635590736754239,0.0012216945178806782,-0.0006108472589403391
1708009825382159400,4.164159423828125,-0.0004581354442052543,-0.0006108472589403391,-0.0006108472589403391
1708009825400714800,4.18271484375,-0.0022906772792339325,0.0012216945178806782,0.0006108472589403391
1708009825419270100,4.201270263671875,0.0032069480512291193,0,-0.0024433890357613564
1708009825437825500,4.219825439453125,0.0032069480512291193,-0.0006108472589403391,-0.0018325417768210173
1708009825456381000,4.238380859375,-0.0016798300202935934,0.0006108472589403391,0.0006108472589403391
1708009825474936300,4.256936279296875,0.0007635590736754239,0,-0.0012216945178806782
1708009825493491700,4.27549169921875,0.00259610079228878,-0.0012216945178806782,-0.0018325417768210173
1708009825512047000,4.294047119140625,0.00015271181473508477,0.0006108472589403391,0
1708009825530602200,4.312602294921875,-0.0010689827613532543,0.0006108472589403391,-0.0012216945178806782
1708009825549157600,4.33115771484375,-0.0010689827613532543,-0.0030542362947016954,-0.0024433890357613564
1708009825567713000,4.349713134765625,-0.0010689827613532543,0,0.0006108472589403391
1708009825586268400,4.368268310546875,0.00015271181473508477,-0.0006108472589403391,0
1708009825604823800,4.38682373046875,-0.0010689827613532543,0,0
1708009825623379200,4.405379150390625,-0.0022906772792339325,0.0012216945178806782,0.0006108472589403391
1708009825641934600,4.4239345703125,0.00015271181473508477,-0.0006108472589403391,-0.0006108472589403391
1708009825660490000,4.442489990234375,0.00015271181473508477,0,0
1708009825679045400,4.46104541015625,-0.0010689827613532543,0.0006108472589403391,0.0006108472589403391
1708009825697600800,4.479600830078125,-0.0004581354442052543,0,-0.0012216945178806782
1708009825716156200,4.49815625,0.001985253533348441,-0.0006108472589403391,-0.0006108472589403391
1708009825734711300,4.516711181640625,0.0007635590736754239,0.0012216945178806782,0.0006108472589403391
1708009825753267000,4.535266845703125,0.0007635590736754239,0.0012216945178806782,0
1708009825771822000,4.553822021484375,-0.0016798300202935934,0,-0.0006108472589403391
1708009825790377500,4.57237744140625,0.00015271181473508477,-0.0012216945178806782,0.0006108472589403391
1708009825808932900,4.590932861328125,0.0007635590736754239,-0.0006108472589403391,0.0012216945178806782
1708009825827488300,4.60948828125,0.0007635590736754239,0,-0.0006108472589403391
1708009825846043600,4.628043701171875,-0.0004581354442052543,0,0
1708009825864599000,4.64659912109375,0.00015271181473508477,0.0006108472589403391,0
1708009825883154400,4.665154541015625,0.0007635590736754239,-0.0012216945178806782,-0.0006108472589403391
1708009825901709800,4.683709716796875,-0.0004581354442052543,-0.0006108472589403391,0.0006108472589403391
1708009825920265200,4.70226513671875,0.00015271181473508477,0,0
1708009825938820600,4.720820556640625,-0.0004581354442052543,-0.0006108472589403391,-0.0012216945178806782
1708009825957376000,4.7393759765625,0.0007635590736754239,-0.0006108472589403391,0
1708009825975931400,4.757931396484375,0.001374406274408102,-0.0012216945178806782,-0.0006108472589403391
1708009825994486800,4.77648681640625,0.00015271181473508477,0,-0.0012216945178806782
1708009826013042200,4.795042236328125,-0.0010689827613532543,-0.0012216945178806782,0
1708009826031597600,4.81359765625,0.0007635590736754239,0.0006108472589403391,0.0006108472589403391
1708009826050152700,4.832152587890625,0.0007635590736754239,0.0012216945178806782,0
1708009826068708400,4.850708251953125,-0.0004581354442052543,0,-0.0006108472589403391
1708009826087263500,4.869263427734375,-0.0010689827613532543,0.0006108472589403391,-0.0012216945178806782
1708009826105819000,4.88781884765625,0.0007635590736754239,-0.0006108472589403391,-0.0006108472589403391
1708009826124374300,4.906374267578125,0.0007635590736754239,-0.0006108472589403391,-0.0012216945178806782
1708009826142929700,4.9249296875,0.00015271181473508477,0,-0.0012216945178806782
1708009826161485000,4.943485107421875,-0.0010689827613532543,0,-0.0006108472589403391
1708009826180040400,4.96204052734375,0.00015271181473508477,0,0
1708009826198595800,4.980595947265625,0.00015271181473508477,0,0.0006108472589403391
1708009826217151200,4.999151123046875,-0.0004581354442052543,-0.0006108472589403391,0
1708009826235706600,5.01770654296875,-0.0004581354442052543,0.0012216945178806782,0
1708009826254262000,5.036261962890625,0.0007635590736754239,-0.0006108472589403391,-0.0012216945178806782
1708009826272817400,5.0548173828125,0.00015271181473508477,-0.0006108472589403391,-0.0006108472589403391
1708009826291372800,5.073372802734375,0.00015271181473508477,0.0006108472589403391,-0.0006108472589403391
1708009826309928200,5.09192822265625,-0.0010689827613532543,0.0006108472589403391,-0.0006108472589403391
1708009826328483600,5.110483642578125,0.00015271181473508477,0,-0.0006108472589403391
1708009826347039000,5.1290390625,0.0007635590736754239,-0.0006108472589403391,0
1708009826365594400,5.147594482421875,0.001374406274408102,-0.0006108472589403391,-0.0012216945178806782
1708009826384149800,5.166149658203125,-0.0010689827613532543,0.0006108472589403391,-0.0012216945178806782
1708009826402705200,5.184705078125,0.00015271181473508477,0.0006108472589403391,0.0006108472589403391
1708009826421260500,5.203260498046875,0.00015271181473508477,-0.0006108472589403391,0
1708009826439816000,5.22181591796875,0.00015271181473508477,0.0006108472589403391,-0.0006108472589403391
1708009826458371300,5.240371337890625,-0.0004581354442052543,0,0
1708009826476926700,5.2589267578125,-0.0010689827613532543,-0.0012216945178806782,-0.0006108472589403391
1708009826495482000,5.277482177734375,0.0007635590736754239,0.0006108472589403391,0.0006108472589403391
1708009826514037500,5.29603759765625,0.0007635590736754239,-0.0006108472589403391,-0.0006108472589403391
1708009826532592600,5.314592529296875,-0.0004581354442052543,0.0006108472589403391,0
1708009826551148300,5.333148193359375,0.00015271181473508477,0,0.0006108472589403391
1708009826569703400,5.351703369140625,0.00015271181473508477,0,0
1708009826588259000,5.370259033203125,0.00015271181473508477,0.0012216945178806782,0.0006108472589403391
1708009826606814200,5.388814208984375,-0.0010689827613532543,-0.0006108472589403391,0
1708009826625369900,5.407369873046875,-0.0010689827613532543,0,-0.0006108472589403391
1708009826643925000,5.425925048828125,0.001374406274408102,0.0006108472589403391,0
1708009826662480400,5.44448046875,-0.0004581354442052543,0.0006108472589403391,0.0006108472589403391
1708009826681035800,5.463035888671875,0.00015271181473508477,0,-0.0012216945178806782
1708009826699591200,5.481591064453125,-0.0004581354442052543,-0.0018325417768210173,0
1708009826718146600,5.500146484375,0.00015271181473508477,-0.0006108472589403391,0
1708009826736702000,5.518701904296875,0.00015271181473508477,0,0.0006108472589403391
1708009826755257300,5.53725732421875,-0.0004581354442052543,0,-0.0006108472589403391
1708009826773812700,5.555812744140625,-0.0004581354442052543,-0.0018325417768210173,-0.0006108472589403391
1708009826792368000,5.5743681640625,0.00015271181473508477,0.0006108472589403391,-0.0012216945178806782
1708009826810923500,5.592923583984375,-0.0004581354442052543,0,0
1708009826829479000,5.61147900390625,-0.0004581354442052543,-0.0006108472589403391,-0.0006108472589403391
1708009826848034300,5.630034423828125,-0.0016798300202935934,-0.0012216945178806782,-0.0006108472589403391
1708009826866589700,5.648589599609375,0.00015271181473508477,0.0006108472589403391,0.0006108472589403391
1708009826885145000,5.66714501953125,0.00015271181473508477,0.0006108472589403391,0
1708009826903700500,5.685700439453125,-0.0004581354442052543,-0.0006108472589403391,-0.0006108472589403391
1708009826922256000,5.704255859375,0.0007635590736754239,-0.0006108472589403391,0
1708009826940811300,5.722811279296875,0.0007635590736754239,-0.0012216945178806782,0.0012216945178806782
1708009826959366700,5.74136669921875,0.00015271181473508477,0,0.0006108472589403391
1708009826977922000,5.759922119140625,-0.0004581354442052543,0,0
1708009826996477400,5.7784775390625,-0.0004581354442052543,0,-0.0006108472589403391
1708009827015032800,5.79703271484375,0.00015271181473508477,0,0
1708009827033588200,5.815588134765625,0.001374406274408102,0.0006108472589403391,0.0006108472589403391
1708009827052143600,5.8341435546875,0.0007635590736754239,0,-0.0006108472589403391
1708009827070699000,5.852698974609375,-0.0010689827613532543,0,-0.0006108472589403391
1708009827089254700,5.871254638671875,0.0007635590736754239,0,0
1708009827107809800,5.889809814453125,-0.0004581354442052543,-0.0006108472589403391,-0.0006108472589403391
1708009827126365200,5.908365234375,-0.0010689827613532543,0,-0.0006108472589403391
1708009827144920600,5.926920654296875,0.00015271181473508477,0,-0.0006108472589403391
1708009827163476000,5.94547607421875,0.0007635590736754239,0,0.0006108472589403391
1708009827182031600,5.964031494140625,0.00015271181473508477,-0.0006108472589403391,-0.0018325417768210173
1708009827200586800,5.982586669921875,0.00015271181473508477,0.0012216945178806782,-0.0006108472589403391
1708009827219142400,6.001142333984375,-0.0004581354442052543,-0.0004581354442052543,-0.0004581354442052543
1708009827237697500,6.019697509765625,-0.0004581354442052543,-0.0004581354442052543,0.00015271181473508477
1708009827256253200,6.038253173828125,-0.0004581354442052543,0.00015271181473508477,0.001374406274408102
1708009827274808600,6.05680859375,-0.0004581354442052543,0.0007635590736754239,0.00015271181473508477
1708009827293364000,6.075364013671875,0.00015271181473508477,0.00015271181473508477,0.00015271181473508477
1708009827311919400,6.09391943359375,0.00015271181473508477,0.00015271181473508477,0.00015271181473508477
1708009827330474800,6.112474853515625,0.0007635590736754239,0.00015271181473508477,0.00015271181473508477
1708009827349030100,6.131030029296875,-0.0010689827613532543,0.00015271181473508477,-0.0010689827613532543
1708009827367585500,6.14958544921875,-0.0004581354442052543,0.00015271181473508477,0.00015271181473508477
1708009827386141000,6.168140869140625,0.0007635590736754239,0.0007635590736754239,0.00015271181473508477
1708009827404696300,6.1866962890625,0.00015271181473508477,-0.0004581354442052543,-0.0004581354442052543
1708009827423251700,6.205251708984375,-0.0010689827613532543,0.0007635590736754239,-0.0004581354442052543
1708009827441807000,6.22380712890625,0.00015271181473508477,0.0007635590736754239,0.00015271181473508477
1708009827460362500,6.242362548828125,0.0007635590736754239,-0.0004581354442052543,0.00015271181473508477
1708009827478918000,6.26091796875,0.0007635590736754239,-0.0004581354442052543,-0.0004581354442052543
1708009827497473300,6.279473388671875,0.00015271181473508477,-0.0009162708884105086,-0.0004581354442052543
1708009827516028700,6.298028564453125,0.00015271181473508477,-0.0004581354442052543,-0.0004581354442052543
1708009827534584000,6.316583984375,-0.0004581354442052543,0.00015271181473508477,-0.0004581354442052543
1708009827553139500,6.335139404296875,0.00015271181473508477,0.00015271181473508477,-0.0010689827613532543
1708009827571694800,6.35369482421875,-0.0004581354442052543,0.001374406274408102,0.0007635590736754239
1708009827590250200,6.372250244140625,0.0007635590736754239,-0.0004581354442052543,-0.0004581354442052543
1708009827608805600,6.3908056640625,-0.0004581354442052543,0.00015271181473508477,0.00015271181473508477
1708009827627361000,6.409361083984375,-0.0004581354442052543,0.001374406274408102,-0.0010689827613532543
1708009827645916400,6.42791650390625,0.00015271181473508477,0.0007635590736754239,0.00015271181473508477
1708009827664471800,6.446471923828125,0.00015271181473508477,0.0007635590736754239,-0.0004581354442052543
1708009827683027200,6.465027099609375,0.00015271181473508477,0.00015271181473508477,0.00015271181473508477
1708009827701582600,6.48358251953125,-0.0004581354442052543,-0.0004581354442052543,0.0007635590736754239
1708009827720138200,6.50213818359375,-0.0010689827613532543,0.00015271181473508477,0.00015271181473508477
1708009827738693600,6.520693603515625,0.00015271181473508477,-0.0010689827613532543,0.001374406274408102
1708009827757249000,6.5392490234375,-0.0004581354442052543,-0.0004581354442052543,0.00015271181473508477
1708009827775804400,6.557804443359375,0.00015271181473508477,-0.0004581354442052543,-0.0004581354442052543
1708009827794359800,6.57635986328125,0.00015271181473508477,0.00015271181473508477,0.00015271181473508477
1708009827812915200,6.594915283203125,0.0007635590736754239,-0.0010689827613532543,0.0007635590736754239
1708009827831470600,6.613470703125,-0.0010689827613532543,0.00015271181473508477,0.00015271181473508477
1708009827850026000,6.63202587890625,0.0007635590736754239,-0.0010689827613532543,-0.0010689827613532543
1708009827868581400,6.650581298828125,-0.0004581354442052543,-0.0004581354442052543,0.0007635590736754239
1708009827887136800,6.66913671875,0.0007635590736754239,0.00015271181473508477,-0.0004581354442052543
1708009827905692200,6.687692138671875,0.00015271181473508477,0.00015271181473508477,-0.0010689827613532543
1708009827924247600,6.70624755859375,0.00015271181473508477,0.0007635590736754239,-0.0004581354442052543
1708009827942803000,6.724802978515625,-0.0004581354442052543,0.00015271181473508477,0.0007635590736754239
1708009827961358300,6.7433583984375,0.00015271181473508477,0.00015271181473508477,0.00015271181473508477
1708009827979913700,6.761913818359375,0.00015271181473508477,0.00015271181473508477,-0.0004581354442052543
1708009827998469400,6.780469482421875,0.00015271181473508477,-0.0004581354442052543,0.0007635590736754239
1708009828017024800,6.799024658203125,0.00015271181473508477,0.00015271181473508477,-0.0010689827613532543
1708009828035580200,6.817580078125,-0.0004581354442052543,-0.0004581354442052543,0.0007635590736754239
1708009828054135600,6.836135498046875,-0.0004581354442052543,-0.0004581354442052543,0.00015271181473508477
1708009828072691000,6.85469091796875,-0.0010689827613532543,0.0007635590736754239,-0.0010689827613532543
1708009828091246300,6.873246337890625,0.00015271181473508477,-0.0004581354442052543,-0.0004581354442052543
1708009828109801700,6.8918017578125,0.00015271181473508477,0.0007635590736754239,-0.0004581354442052543
1708009828128357000,6.910357177734375,0.0007635590736754239,0.0007635590736754239,-0.0004581354442052543
1708009828146912500,6.92891259765625,0.00015271181473508477,0.00015271181473508477,0.00015271181473508477
1708009828165468000,6.947468017578125,0.00015271181473508477,-0.0015271181473508477,0.00015271181473508477
1708009828184023300,6.966023193359375,-0.0004581354442052543,0.0007635590736754239,0.0007635590736754239
1708009828202578700,6.98457861328125,0.00015271181473508477,0.001374406274408102,-0.0004581354442052543
1708009828221134300,7.00313427734375,0.00015271181473508477,-0.0009162708884105086,-0.0004581354442052543
1708009828239689700,7.021689697265625,-0.0004581354442052543,0.00015271181473508477,0.00015271181473508477
1708009828258245000,7.0402451171875,0.0007635590736754239,0.00015271181473508477,-0.0010689827613532543
1708009828276800500,7.058800537109375,0.00015271181473508477,-0.0004581354442052543,0.00015271181473508477
1708009828295356000,7.07735595703125,-0.0010689827613532543,0.0007635590736754239,-0.0016798300202935934
1708009828313911300,7.095911376953125,0.00015271181473508477,-0.0004581354442052543,-0.0004581354442052543
1708009828332466700,7.114466796875,0.00015271181473508477,-0.0004581354442052543,-0.0004581354442052543
1708009828351022000,7.13302197265625,-0.0004581354442052543,0.00015271181473508477,-0.0004581354442052543
1708009828369577500,7.151577392578125,-0.0010689827613532543,-0.0004581354442052543,0.00015271181473508477
1708009828388132900,7.1701328125,0.00015271181473508477,0.00015271181473508477,-0.0004581354442052543
1708009828406688300,7.188688232421875,-0.0004581354442052543,0.001374406274408102,0.00015271181473508477
1708009828425244000,7.207243896484375,0.00015271181473508477,-0.0004581354442052543,0.00015271181473508477
1708009828443799300,7.22579931640625,-0.0004581354442052543,0.00015271181473508477,0.0007635590736754239
1708009828462354700,7.244354736328125,0.0007635590736754239,-0.0004581354442052543,-0.0004581354442052543
1708009828480910000,7.26291015625,-0.0004581354442052543,-0.0004581354442052543,0.00015271181473508477
1708009828499465500,7.281465576171875,-0.0004581354442052543,-0.0004581354442052543,0.0007635590736754239
1708009828518020900,7.300020751953125,-0.0004581354442052543,0.00015271181473508477,-0.0004581354442052543
1708009828536576300,7.318576171875,0.00015271181473508477,0.00030542362947016954,-0.0004581354442052543
1708009828555131600,7.337131591796875,0.00015271181473508477,0.001374406274408102,-0.0004581354442052543
1708009828573687000,7.35568701171875,0.00015271181473508477,0.0007635590736754239,-0.0004581354442052543
1708009828592242400,7.374242431640625,0.0007635590736754239,0.001374406274408102,0.00015271181473508477
1708009828610798000,7.392798095703125,-0.0004581354442052543,0.00015271181473508477,0.0007635590736754239
1708009828629353500,7.411353515625,0.00015271181473508477,-0.00030542362947016954,-0.0004581354442052543
1708009828647908900,7.429908935546875,0.00015271181473508477,0.0007635590736754239,0.00015271181473508477
1708009828666464300,7.44846435546875,0.0007635590736754239,0.00015271181473508477,0.0007635590736754239
1708009828685019600,7.46701953125,0.0007635590736754239,0.00015271181473508477,0.00015271181473508477
1708009828703575000,7.485574951171875,-0.0004581354442052543,0.00015271181473508477,-0.0004581354442052543
1708009828722130400,7.50413037109375,0.00015271181473508477,-0.0004581354442052543,0.0007635590736754239
1708009828740685800,7.522685791015625,0.00015271181473508477,0,-0.0004581354442052543
1708009828759241500,7.541241455078125,-0.0004581354442052543,-0.0004581354442052543,0.00015271181473508477
1708009828777796900,7.559796875,0.0007635590736754239,0,0.00015271181473508477
1708009828796352300,7.578352294921875,0.00015271181473508477,-0.0004581354442052543,-0.0004581354442052543
1708009828814907600,7.59690771484375,-0.0010689827613532543,0,0.0007635590736754239
1708009828833463000,7.615463134765625,0.0007635590736754239,0.0007635590736754239,-0.0004581354442052543
1708009828852018400,7.634018310546875,0.00015271181473508477,-0.0004581354442052543,-0.0004581354442052543
1708009828870573800,7.65257373046875,0.00015271181473508477,-0.0004581354442052543,0.00015271181473508477
1708009828889129200,7.671129150390625,0.00015271181473508477,-0.0004581354442052543,-0.0004581354442052543
1708009828907684900,7.689684814453125,0.00015271181473508477,0.00015271181473508477,0.00015271181473508477
1708009828926240300,7.708240234375,0.00015271181473508477,0.00015271181473508477,-0.0010689827613532543
1708009828944795600,7.726795654296875,0.00015271181473508477,0.0012216945178806782,0.0007635590736754239
1708009828963351000,7.74535107421875,-0.0004581354442052543,0,0.00015271181473508477
1708009828981906400,7.763906494140625,-0.0004581354442052543,0.0006108472589403391,-0.0004581354442052543
1708009829000461800,7.7824619140625,-0.0004581354442052543,0,0.001374406274408102
1708009829019017200,7.801017333984375,-0.0004581354442052543,0.0012216945178806782,0.00015271181473508477
1708009829037572600,7.819572509765625,0.00015271181473508477,0.00015271181473508477,-0.0010689827613532543
1708009829056128300,7.838128173828125,0.00015271181473508477,0.00015271181473508477,-0.0004581354442052543
1708009829074683600,7.85668359375,0.00015271181473508477,0.0006108472589403391,0.00015271181473508477
1708009829093239000,7.875239013671875,0.00015271181473508477,0.0006108472589403391,0.00015271181473508477
1708009829111794400,7.89379443359375,-0.0004581354442052543,0.00015271181473508477,-0.0004581354442052543
1708009829130349800,7.912349853515625,-0.0010689827613532543,0.0018325417768210173,0.001374406274408102
1708009829148905200,7.9309052734375,-0.0004581354442052543,0.00015271181473508477,-0.0004581354442052543
1708009829167460600,7.949460693359375,0.00015271181473508477,0.0007635590736754239,0.00015271181473508477
1708009829186016300,7.968016357421875,0.00015271181473508477,0.00015271181473508477,0.00015271181473508477
1708009829204571600,7.986571533203125,-0.0010689827613532543,-0.0004581354442052543,-0.0004581354442052543
1708009829223127000,8.005126953125,-0.0004581354442052543,0.0007635590736754239,0.00015271181473508477
1708009829241682400,8.023682373046874,0.00015271181473508477,-0.0004581354442052543,-0.0004581354442052543
1708009829260237800,8.04223779296875,-0.0004581354442052543,-0.0010689827613532543,-0.0004581354442052543
1708009829278793200,8.060793212890625,0.00015271181473508477,0.00015271181473508477,-0.0004581354442052543
1708009829297348900,8.079348876953125,0.0007635590736754239,0.0012216945178806782,0.00015271181473508477
1708009829315904300,8.097904296875,0.0007635590736754239,-0.0004581354442052543,-0.0004581354442052543
1708009829334459600,8.116459716796875,0.0007635590736754239,0.00015271181473508477,-0.0004581354442052543
1708009829353015000,8.13501513671875,-0.0004581354442052543,0.0012216945178806782,0.0007635590736754239
1708009829371570400,8.1535703125,-0.0004581354442052543,0.00015271181473508477,-0.0004581354442052543
1708009829390125800,8.172125732421875,0.00015271181473508477,-0.0004581354442052543,-0.0004581354442052543
1708009829408681500,8.190681396484376,0.00015271181473508477,-0.0010689827613532543,-0.0004581354442052543
1708009829427236900,8.20923681640625,0.00015271181473508477,0.0007635590736754239,0.00015271181473508477
1708009829445792300,8.227792236328124,0.00015271181473508477,-0.0004581354442052543,-0.0004581354442052543
1708009829464347600,8.24634765625,0.00015271181473508477,-0.0004581354442052543,-0.0004581354442052543
1708009829482903000,8.264903076171874,-0.0004581354442052543,0.0006108472589403391,0.00015271181473508477
1708009829501458400,8.28345849609375,0.0007635590736754239,0.00015271181473508477,0.0007635590736754239
1708009829520014000,8.30201416015625,-0.0004581354442052543,0.00015271181473508477,0.0007635590736754239
1708009829538569500,8.320569580078125,0.00015271181473508477,0.0007635590736754239,0.0007635590736754239
1708009829557124900,8.339124755859375,-0.0004581354442052543,-0.0004581354442052543,-0.0004581354442052543
1708009829575680300,8.35768017578125,-0.0004581354442052543,0.0007635590736754239,-0.0004581354442052543
1708009829594235600,8.376235595703125,0.00015271181473508477,0.00015271181473508477,-0.0004581354442052543
1708009829612791000,8.394791015625,0.00015271181473508477,0.00015271181473508477,-0.0004581354442052543
1708009829631346700,8.4133466796875,-0.0004581354442052543,-0.0004581354442052543,-0.0004581354442052543
1708009829649902000,8.431902099609376,-0.0004581354442052543,-0.0010689827613532543,0.001374406274408102
1708009829668457500,8.45045751953125,-0.0004581354442052543,0.00015271181473508477,-0.0004581354442052543
1708009829687012900,8.469012939453124,-0.0004581354442052543,-0.0010689827613532543,0.0007635590736754239
1708009829705568300,8.487568359375,0.00015271181473508477,0.0007635590736754239,0.0007635590736754239
1708009829724123600,8.50612353515625,-0.0004581354442052543,-0.0004581354442052543,0.00015271181473508477
1708009829742679000,8.524678955078125,-0.0004581354442052543,-0.0010689827613532543,-0.0004581354442052543
1708009829761234700,8.543234619140625,-0.0004581354442052543,-0.0004581354442052543,-0.0004581354442052543
1708009829779790000,8.5617900390625,-0.0004581354442052543,0.00015271181473508477,0.00015271181473508477
1708009829798345500,8.580345458984375,0.00015271181473508477,0.00015271181473508477,-0.0004581354442052543
1708009829816900900,8.59890087890625,-0.0010689827613532543,-0.0004581354442052543,0.0007635590736754239
1708009829835456300,8.617456298828126,-0.0004581354442052543,-0.0010689827613532543,-0.0004581354442052543
1708009829854012000,8.636011962890626,0.0007635590736754239,0.00015271181473508477,-0.0004581354442052543
1708009829872567300,8.6545673828125,0.00015271181473508477,0,0.0007635590736754239
1708009829891122700,8.673122802734374,0.001374406274408102,-0.0004581354442052543,0.0007635590736754239
1708009829909678000,8.691677978515624,-0.0004581354442052543,0.00015271181473508477,0.00015271181473508477
1708009829928233500,8.7102333984375,0.00015271181473508477,-0.0004581354442052543,0.0007635590736754239
1708009829946789000,8.7287890625,0.00015271181473508477,0.00015271181473508477,-0.0004581354442052543
1708009829965344500,8.747344482421875,0.00015271181473508477,-0.0010689827613532543,-0.0004581354442052543
1708009829983900000,8.76589990234375,0.00015271181473508477,0.0007635590736754239,0.00015271181473508477
1708009830002455300,8.784455322265625,-0.0004581354442052543,-0.0016798300202935934,-0.0004581354442052543
1708009830021010700,8.8030107421875,0.00015271181473508477,-0.0010689827613532543,0.0007635590736754239
1708009830039566000,8.821566162109375,-0.0010689827613532543,0.0007635590736754239,0.0007635590736754239
1708009830058121700,8.840121826171876,0.00015271181473508477,-0.0004581354442052543,0.00015271181473508477
1708009830076677000,8.858677001953126,-0.0004581354442052543,0.0007635590736754239,-0.0004581354442052543
1708009830095232500,8.877232421875,0.00015271181473508477,0.00015271181473508477,-0.0004581354442052543
1708009830113788000,8.895787841796874,0.00015271181473508477,-0.0004581354442052543,-0.0004581354442052543
1708009830132346600,8.9143466796875,-0.0004581354442052543,0.0007635590736754239,-0.0004581354442052543
1708009830150902300,8.93290234375,-0.0004581354442052543,-0.0010689827613532543,0.0007635590736754239
1708009830169457700,8.951457763671876,-0.0004581354442052543,-0.0010689827613532543,-0.0004581354442052543
1708009830188013000,8.970012939453126,-0.0004581354442052543,-0.0004581354442052543,0.00015271181473508477
1708009830206568400,8.988568359375,-0.0004581354442052543,-0.0004581354442052543,-0.0004581354442052543
1708009830225123800,9.007123779296874,-0.0004581354442052543,-0.0004581354442052543,-0.0004581354442052543
1708009830243679500,9.025679443359374,0.0007635590736754239,-0.0004581354442052543,-0.0004581354442052543
1708009830262235000,9.04423486328125,0.00015271181473508477,0.00015271181473508477,-0.00030542362947016954
1708009830280790300,9.062790283203125,0.00015271181473508477,0,0.0009162708884105086
1708009830299345700,9.081345703125,0.0007635590736754239,-0.0004581354442052543,0.00030542362947016954
1708009830317901000,9.099901123046875,-0.0004581354442052543,0,0.00030542362947016954
1708009830336456700,9.118456787109375,-0.0004581354442052543,0.0007635590736754239,0.0009162708884105086
1708009830355012000,9.13701220703125,-0.0004581354442052543,0.0012216945178806782,0.0009162708884105086
1708009830373567500,9.1555673828125,0.00015271181473508477,0.00015271181473508477,-0.0009162708884105086
1708009830392123000,9.174122802734376,0.00015271181473508477,-0.0004581354442052543,-0.00030542362947016954
1708009830410678300,9.19267822265625,-0.0010689827613532543,0,-0.00030542362947016954
1708009830429234000,9.21123388671875,0.0007635590736754239,-0.0016798300202935934,-0.0009162708884105086
1708009830447789300,9.229789306640624,0.0007635590736754239,-0.0004581354442052543,0.00030542362947016954
1708009830466344700,9.2483447265625,-0.0010689827613532543,0.0018325417768210173,0.00030542362947016954
1708009830484900000,9.266900146484375,-0.0004581354442052543,0.0012216945178806782,0.0009162708884105086
1708009830503455500,9.28545556640625,0.0007635590736754239,0.001374406274408102,0.00030542362947016954
1708009830522011100,9.30401123046875,-0.0004581354442052543,-0.0010689827613532543,-0.00030542362947016954
1708009830540566500,9.32256640625,0.00015271181473508477,0.0007635590736754239,0.0009162708884105086
1708009830559122000,9.341121826171875,-0.0004581354442052543,0.00015271181473508477,0.00030542362947016954
1708009830577677300,9.35967724609375,0.00015271181473508477,0.00015271181473508477,0.00030542362947016954
1708009830596232700,9.378232666015625,0.00015271181473508477,0.0012216945178806782,0.0009162708884105086
1708009830614788400,9.396788330078126,0.001374406274408102,-0.0004581354442052543,-0.0009162708884105086
1708009830633343700,9.41534375,0.0007635590736754239,-0.0004581354442052543,0.00030542362947016954
1708009830651899100,9.433899169921874,-0.0004581354442052543,0.00015271181473508477,-0.00030542362947016954
1708009830670454500,9.45245458984375,-0.0010689827613532543,-0.0010689827613532543,-0.00030542362947016954
1708009830689010000,9.471010009765624,-0.0004581354442052543,0.00015271181473508477,-0.00030542362947016954
1708009830707565600,9.489565673828125,-0.0010689827613532543,0.00015271181473508477,-0.00030542362947016954
1708009830726121000,9.508120849609375,-0.0004581354442052543,0.00015271181473508477,-0.00030542362947016954
1708009830744676400,9.52667626953125,-0.0004581354442052543,-0.0010689827613532543,0.00030542362947016954
1708009830763231700,9.545231689453125,0.0007635590736754239,-0.0010689827613532543,0.00030542362947016954
1708009830781787400,9.563787353515625,-0.0010689827613532543,-0.0004581354442052543,0.00030542362947016954
1708009830800342800,9.5823427734375,0.0007635590736754239,0.0007635590736754239,-0.00030542362947016954
1708009830818898200,9.600898193359376,-0.0004581354442052543,0.00015271181473508477,0.0009162708884105086
1708009830837453600,9.61945361328125,0.00015271181473508477,0.00015271181473508477,0.0009162708884105086
1708009830856009000,9.638009033203126,0.0007635590736754239,-0.0004581354442052543,0.00030542362947016954
1708009830874564600,9.656564697265624,-0.0004581354442052543,0.001374406274408102,-0.0015271181473508477
1708009830893120000,9.6751201171875,-0.0004581354442052543,0.00015271181473508477,0.00030542362947016954
1708009830911675400,9.69367529296875,0.00015271181473508477,-0.0004581354442052543,0.0009162708884105086
1708009830930230800,9.712230712890625,0.00015271181473508477,0.001374406274408102,0.0009162708884105086
1708009830948786200,9.7307861328125,-0.0010689827613532543,0.00015271181473508477,0.00030542362947016954
1708009830967341800,9.749341796875,-0.0004581354442052543,0.0007635590736754239,-0.00030542362947016954
1708009830985897200,9.767897216796875,0.00015271181473508477,0.0012216945178806782,0.0009162708884105086
1708009831004452600,9.78645263671875,-0.0004581354442052543,0.0007635590736754239,-0.00030542362947016954
1708009831023008000,9.805008056640625,0.0007635590736754239,-0.0004581354442052543,0.0009162708884105086
1708009831041563400,9.8235634765625,-0.0004581354442052543,-0.0004581354442052543,-0.00030542362947016954
1708009831060119000,9.842119140625,-0.0004581354442052543,-0.0010689827613532543,0.00030542362947016954
1708009831078674400,9.86067431640625,0.00015271181473508477,0.0007635590736754239,0.00030542362947016954
1708009831097229800,9.879229736328124,0.00015271181473508477,0.0012216945178806782,0.00030542362947016954
1708009831115785200,9.89778515625,-0.0004581354442052543,0.00015271181473508477,-0.00030542362947016954
1708009831134340900,9.9163408203125,0.00015271181473508477,-0.0004581354442052543,0.00030542362947016954
1708009831152896300,9.934896240234375,0.001374406274408102,-0.0004581354442052543,0.00030542362947016954
1708009831171451600,9.95345166015625,0.00015271181473508477,0.0007635590736754239,-0.0009162708884105086
1708009831190007000,9.972007080078125,0.0007635590736754239,0.0007635590736754239,0.00030542362947016954
1708009831208562400,9.9905625,-0.0004581354442052543,0.00015271181473508477,0.00030542362947016954
1708009831227118000,10.0091181640625,0.0007635590736754239,-0.0010689827613532543,-0.0009162708884105086
1708009831245673500,10.027673583984376,0.00015271181473508477,-0.0010689827613532543,-0.00030542362947016954
1708009831264228900,10.046228759765626,0.00015271181473508477,-0.0016798300202935934,-0.0015271181473508477
1708009831282784300,10.0647841796875,0.0007635590736754239,-0.0010689827613532543,-0.00030542362947016954
1708009831301339600,10.083339599609374,-0.0004581354442052543,0.00015271181473508477,0.00030542362947016954
1708009831319895300,10.101895263671874,0.001374406274408102,0.00015271181473508477,-0.00030542362947016954
1708009831338450700,10.12045068359375,0.00015271181473508477,-0.0004581354442052543,-0.00030542362947016954
1708009831357006000,10.139006103515625,0.00015271181473508477,-0.0004581354442052543,0.0009162708884105086
1708009831375561500,10.1575615234375,0.00015271181473508477,0.0007635590736754239,0.0009162708884105086
1708009831394117000,10.1761171875,0.00015271181473508477,0.0018325417768210173,-0.00030542362947016954
1708009831412672500,10.194672607421875,0.00015271181473508477,-0.0004581354442052543,0.00030542362947016954
1708009831431228000,10.213227783203125,-0.0010689827613532543,-0.0004581354442052543,0.0009162708884105086
1708009831449783300,10.231783203125,-0.0004581354442052543,0.0007635590736754239,0.00030542362947016954
1708009831468339000,10.2503388671875,0.00015271181473508477,0.0007635590736754239,-0.0009162708884105086
1708009831486894300,10.268894287109376,-0.0010689827613532543,0.0007635590736754239,-0.00030542362947016954
1708009831505449700,10.28744970703125,-0.0004581354442052543,-0.0004581354442052543,-0.00030542362947016954
1708009831524005000,10.306005126953124,0.00015271181473508477,-0.0010689827613532543,-0.0009162708884105086
1708009831542560800,10.324560791015625,-0.0004581354442052543,0.00015271181473508477,0.0009162708884105086
1708009831561116200,10.3431162109375,-0.0004581354442052543,0.00015271181473508477,-0.00030542362947016954
1708009831579671600,10.361671630859375,-0.0004581354442052543,0.00015271181473508477,0.0009162708884105086
1708009831598227000,10.38022705078125,-0.0004581354442052543,0.00015271181473508477,-0.00030542362947016954
1708009831616782600,10.398782470703125,-0.0004581354442052543,-0.0004581354442052543,0.0009162708884105086
1708009831635338000,10.417337890625,0.00015271181473508477,0.0007635590736754239,0.00030542362947016954
1708009831653893400,10.435893310546875,0.00015271181473508477,-0.0010689827613532543,-0.00030542362947016954
1708009831672448800,10.45444873046875,0.00015271181473508477,0.00015271181473508477,0.00030542362947016954
1708009831691004400,10.47300439453125,0.00015271181473508477,0.00015271181473508477,-0.00030542362947016954
1708009831709559800,10.491559814453124,0.00015271181473508477,0.0007635590736754239,0.0015271181473508477
1708009831728115200,10.510115234375,0.0007635590736754239,0.001374406274408102,0.00030542362947016954
1708009831746670600,10.528670654296874,-0.0004581354442052543,-0.0004581354442052543,0.0009162708884105086
1708009831765226000,10.54722607421875,-0.0010689827613532543,-0.0006108472589403391,-0.00030542362947016954
1708009831783781600,10.56578173828125,-0.0004581354442052543,0,0.00030542362947016954
1708009831802337000,10.5843369140625,0.00015271181473508477,0,-0.00030542362947016954
1708009831820892400,10.602892333984375,0.00015271181473508477,0.0012216945178806782,-0.00030542362947016954
1708009831839447800,10.62144775390625,-0.0010689827613532543,0.0006108472589403391,-0.00030542362947016954
1708009831858003500,10.64000341796875,-0.0004581354442052543,-0.0006108472589403391,0.0009162708884105086
1708009831876558800,10.658558837890626,0.00015271181473508477,-0.0012216945178806782,-0.00030542362947016954
1708009831895114200,10.6771142578125,0.0007635590736754239,-0.0006108472589403391,0.0009162708884105086
1708009831913669600,10.695669677734376,0.00015271181473508477,0.0006108472589403391,-0.0009162708884105086
1708009831932225300,10.714225341796874,-0.0004581354442052543,0.0006108472589403391,0.00030542362947016954
1708009831950780700,10.73278076171875,0.001374406274408102,-0.0006108472589403391,0.00030542362947016954
1708009831969336000,10.751336181640625,0.0007635590736754239,0.0006108472589403391,0.00030542362947016954
1708009831987891500,10.769891357421875,-0.0010689827613532543,0.0004581354442052543,0.00030542362947016954
1708009832006447000,10.788447021484375,-0.0004581354442052543,-0.0012216945178806782,0.00030542362947016954
1708009832025002500,10.80700244140625,0.00015271181473508477,0.0006108472589403391,-0.00030542362947016954
1708009832043558000,10.825557861328125,0.0007635590736754239,0,-0.00030542362947016954
1708009832062113300,10.84411328125,0.00015271181473508477,0,-0.00030542362947016954
1708009832080669000,10.8626689453125,0.00015271181473508477,0.0006108472589403391,-0.00030542362947016954
1708009832099224300,10.881224365234376,0.0007635590736754239,-0.0006108472589403391,-0.00030542362947016954
1708009832117779700,10.89977978515625,0.00015271181473508477,0,-0.0009162708884105086
1708009832136335400,10.91833544921875,0.00015271181473508477,0,0.00030542362947016954
1708009832154890800,10.936890869140624,-0.0004581354442052543,0.0006108472589403391,0.0009162708884105086
1708009832173446100,10.955446044921874,-0.0004581354442052543,0,0.0015271181473508477
1708009832192001500,10.97400146484375,0.00015271181473508477,-0.0006108472589403391,-0.00030542362947016954
1708009832210557200,10.99255712890625,0.00015271181473508477,0.0006108472589403391,-0.00030542362947016954
1708009832229112600,11.011112548828125,-0.0004581354442052543,-0.0006108472589403391,-0.00030542362947016954
1708009832247668000,11.02966796875,-0.0010689827613532543,0,-0.00030542362947016954
1708009832266223400,11.048223388671875,0.001374406274408102,0,0.00030542362947016954
1708009832284778800,11.06677880859375,-0.0010689827613532543,0,-0.00030542362947016954
1708009832303334400,11.08533447265625,0.00015271181473508477,0,0.00030542362947016954
1708009832321889800,11.103889892578126,-0.0004581354442052543,-0.0006108472589403391,-0.0009162708884105086
1708009832340445200,11.122445068359376,0.00015271181473508477,-0.0006108472589403391,0.00030542362947016954
1708009832359000600,11.14100048828125,0.0007635590736754239,0,0.0009162708884105086
1708009832377556200,11.15955615234375,0.00015271181473508477,0.0010689827613532543,0.0009162708884105086
1708009832396111600,11.178111572265625,-0.0004581354442052543,0,-0.00030542362947016954
1708009832414667000,11.1966669921875,0.0007635590736754239,-0.0006108472589403391,-0.00030542362947016954
1708009832433222700,11.21522265625,0.00015271181473508477,0,0.00030542362947016954
1708009832451778000,11.233778076171875,-0.0004581354442052543,0,-0.00030542362947016954
1708009832470333400,11.25233349609375,-0.0010689827613532543,0,0.00030542362947016954
1708009832488889000,11.27088916015625,0.00015271181473508477,0,-0.0009162708884105086
1708009832507444500,11.289444580078126,0.00015271181473508477,0,0.00030542362947016954
1708009832525999900,11.307999755859376,0.00015271181473508477,0,-0.0009162708884105086
1708009832544555300,11.32655517578125,0.00015271181473508477,-0.0006108472589403391,0.0009162708884105086
1708009832563111000,11.34511083984375,0.00015271181473508477,-0.0006108472589403391,0.00030542362947016954
1708009832581666300,11.363666259765624,0.0007635590736754239,0,0.00030542362947016954
1708009832600221700,11.3822216796875,0.00015271181473508477,-0.0006108472589403391,0.00030542362947016954
1708009832618777000,11.400777099609375,-0.0004581354442052543,0,-0.00030542362947016954
1708009832637332700,11.419332763671875,-0.0004581354442052543,0.0006108472589403391,0.00030542362947016954
1708009832655888100,11.43788818359375,-0.0004581354442052543,0,0.0015271181473508477
1708009832674443500,11.456443603515625,-0.0004581354442052543,-0.0012216945178806782,-0.00030542362947016954
1708009832692999200,11.474999267578125,0.00015271181473508477,-0.0006108472589403391,-0.00030542362947016954
1708009832711554600,11.493554443359375,0.0007635590736754239,-0.0006108472589403391,0.0009162708884105086
1708009832730110000,11.51210986328125,0.00015271181473508477,-0.0012216945178806782,0.00030542362947016954
1708009832748665600,11.53066552734375,0.00015271181473508477,0.0006108472589403391,-0.00030542362947016954
1708009832767221000,11.549220947265624,0.0007635590736754239,-0.0012216945178806782,0.00030542362947016954
1708009832785776400,11.5677763671875,-0.0004581354442052543,0,0.00030542362947016954
1708009832804331800,11.586331787109375,-0.0004581354442052543,-0.0006108472589403391,-0.0009162708884105086
1708009832822887400,11.604887451171875,0.0007635590736754239,-0.0006108472589403391,-0.00030542362947016954
1708009832841442800,11.62344287109375,0.00015271181473508477,-0.0006108472589403391,0.0009162708884105086
1708009832859998200,11.641998291015625,0.00015271181473508477,0,0.00030542362947016954
1708009832878553900,11.660553955078125,0.00015271181473508477,-0.0006108472589403391,-0.00030542362947016954
1708009832897109200,11.679109130859375,-0.0004581354442052543,0.0006108472589403391,-0.00030542362947016954
1708009832915664600,11.69766455078125,0.00015271181473508477,-0.0006108472589403391,-0.00030542362947016954
1708009832934220300,11.71622021484375,-0.0004581354442052543,-0.0006108472589403391,0.00030542362947016954
1708009832952775700,11.734775634765626,0.0007635590736754239,0,-0.00030542362947016954
1708009832971331000,11.7533310546875,0.00015271181473508477,0,0.00030542362947016954
1708009832989886500,11.771886474609374,0.00015271181473508477,0,0.0009162708884105086
1708009833008442000,11.790442138671875,-0.0010689827613532543,-0.0012216945178806782,0.0009162708884105086
1708009833026997500,11.80899755859375,0.00015271181473508477,0,-0.00030542362947016954
1708009833045553000,11.827552978515625,0.00015271181473508477,-0.0006108472589403391,0.00030542362947016954
1708009833064108500,11.846108642578125,-0.0004581354442052543,0,0.00030542362947016954
1708009833082664000,11.864663818359375,0.00015271181473508477,0,-0.00030542362947016954
1708009833101219300,11.88321923828125,-0.0004581354442052543,-0.0012216945178806782,0.00030542362947016954
1708009833119775000,11.90177490234375,-0.0004581354442052543,-0.0018325417768210173,0.0009162708884105086
1708009833138330400,11.920330322265626,0.00015271181473508477,0.0006108472589403391,-0.00030542362947016954
1708009833156885800,11.9388857421875,0.00015271181473508477,0,0.00030542362947016954
1708009833175441200,11.957441162109374,-0.0004581354442052543,0,0.00030542362947016954
1708009833193996800,11.975996826171874,0.00015271181473508477,-0.0012216945178806782,-0.0009162708884105086
1708009833212552200,11.99455224609375,0.001374406274408102,-0.0006108472589403391,-0.00030542362947016954
1708009833231107600,12.013107666015625,-0.0004581354442052543,0.0006108472589403391,-0.00030542362947016954
1708009833249663200,12.031663330078125,0.00015271181473508477,0.0006108472589403391,-0.00030542362947016954
1708009833268218600,12.050218505859375,-0.0004581354442052543,-0.0012216945178806782,-0.0009162708884105086
1708009833286774000,12.06877392578125,0.00015271181473508477,-0.0009162708884105086,-0.00030542362947016954
1708009833305329700,12.08732958984375,0.00015271181473508477,-0.00030542362947016954,-0.00030542362947016954
1708009833323885000,12.105885009765625,0.00015271181473508477,0.00030542362947016954,-0.00030542362947016954
1708009833342440400,12.1244404296875,0.00015271181473508477,-0.0009162708884105086,-0.00030542362947016954
1708009833360996000,12.14299609375,0.00015271181473508477,-0.00030542362947016954,-0.00030542362947016954
1708009833379551500,12.161551513671874,0.0007635590736754239,0.00030542362947016954,-0.00030542362947016954
1708009833398107000,12.18010693359375,-0.0010689827613532543,-0.00030542362947016954,0.00030542362947016954
1708009833416662500,12.19866259765625,-0.0004581354442052543,-0.00030542362947016954,0.0009162708884105086
1708009833435218000,12.217218017578125,-0.0004581354442052543,-0.00030542362947016954,-0.00030542362947016954
1708009833453773300,12.235773193359375,0.001374406274408102,-0.00030542362947016954,0.0009162708884105086
1708009833472328700,12.25432861328125,0.00015271181473508477,0.0007635590736754239,0.00030542362947016954
1708009833490884400,12.27288427734375,0.00015271181473508477,0.00030542362947016954,0.00030542362947016954
1708009833509439700,12.291439697265625,0.00015271181473508477,-0.00030542362947016954,-0.00030542362947016954
1708009833527995100,12.3099951171875,0.00015271181473508477,-0.0009162708884105086,-0.00030542362947016954
1708009833546550800,12.32855078125,0.001374406274408102,0.00030542362947016954,-0.00030542362947016954
1708009833565106200,12.347106201171876,0.00015271181473508477,0.00030542362947016954,-0.0009162708884105086
1708009833583661600,12.36566162109375,0.00015271181473508477,0.00030542362947016954,-0.00030542362947016954
1708009833602217200,12.38421728515625,0.00015271181473508477,0.00030542362947016954,-0.0009162708884105086
1708009833620772600,12.402772705078124,-0.0004581354442052543,-0.00030542362947016954,-0.00030542362947016954
1708009833639328000,12.421327880859375,0.00015271181473508477,0.00030542362947016954,0.00030542362947016954
1708009833657883600,12.439883544921875,-0.0004581354442052543,-0.0009162708884105086,-0.00030542362947016954
1708009833676439000,12.45843896484375,-0.0004581354442052543,0.00030542362947016954,-0.00030542362947016954
1708009833694994400,12.476994384765625,-0.0004581354442052543,0.0007635590736754239,0.00030542362947016954
1708009833713550000,12.495550048828125,0.00015271181473508477,0.0009162708884105086,0.0009162708884105086
1708009833732105500,12.51410546875,-0.0010689827613532543,-0.0009162708884105086,-0.0015271181473508477
1708009833750660900,12.532660888671876,-0.0004581354442052543,0.00030542362947016954,0.00030542362947016954
1708009833769216500,12.551216552734376,0.00015271181473508477,-0.00030542362947016954,-0.00030542362947016954
1708009833787772000,12.56977197265625,-0.0004581354442052543,0.00015271181473508477,0.00030542362947016954
1708009833806327300,12.588327392578124,0.00015271181473508477,0.0007635590736754239,-0.00030542362947016954
1708009833824883000,12.606883056640624,-0.0004581354442052543,0.00030542362947016954,0.0009162708884105086
1708009833843438300,12.625438232421875,0.001374406274408102,-0.00030542362947016954,-0.0009162708884105086
1708009833861993700,12.64399365234375,-0.0004581354442052543,0.00030542362947016954,-0.00030542362947016954
1708009833880549000,12.662549072265625,-0.0004581354442052543,0.00030542362947016954,0.0009162708884105086
1708009833899104800,12.681104736328125,0.00015271181473508477,0.00030542362947016954,-0.00030542362947016954
1708009833917660200,12.69966015625,-0.0004581354442052543,0.00030542362947016954,-0.00030542362947016954
1708009833936215800,12.7182158203125,-0.0004581354442052543,0.00030542362947016954,-0.00030542362947016954
1708009833954771200,12.736771240234376,0.0007635590736754239,-0.00030542362947016954,0.00030542362947016954
1708009833973326600,12.75532666015625,0.00015271181473508477,-0.00030542362947016954,-0.00030542362947016954
1708009833991882200,12.77388232421875,0.001374406274408102,0.00030542362947016954,-0.00030542362947016954
1708009834010437600,12.792437744140624,0.00015271181473508477,-0.00030542362947016954,0.00030542362947016954
1708009834028993000,12.810992919921874,0.00015271181473508477,0.0009162708884105086,0.00030542362947016954
1708009834047548700,12.829548583984375,0.0007635590736754239,-0.00030542362947016954,-0.00030542362947016954
1708009834066104000,12.84810400390625,0.00015271181473508477,0.00030542362947016954,-0.00030542362947016954
1708009834084659500,12.866659423828125,-0.0004581354442052543,-0.00030542362947016954,0.00030542362947016954
1708009834103215000,12.885215087890625,0.00015271181473508477,0.00030542362947016954,0.00030542362947016954
1708009834121770500,12.9037705078125,0.00015271181473508477,0.00030542362947016954,0.0009162708884105086
1708009834140326000,12.922325927734375,0.00015271181473508477,0.0009162708884105086,0.00030542362947016954
1708009834158881500,12.940881591796876,0.00015271181473508477,0.00030542362947016954,-0.00030542362947016954
1708009834177437000,12.95943701171875,0.0007635590736754239,-0.0009162708884105086,-0.00030542362947016954
1708009834195992300,12.977992431640626,0.0007635590736754239,0.0009162708884105086,-0.00030542362947016954
1708009834214548000,12.9965478515625,-0.0010689827613532543,-0.00030542362947016954,0.00030542362947016954
1708009834233103400,13.015103271484374,-0.0010689827613532543,0.00030542362947016954,-0.0009162708884105086
1708009834251658800,13.03365869140625,0.0007635590736754239,-0.00030542362947016954,-0.00030542362947016954
1708009834270214400,13.05221435546875,0.00015271181473508477,-0.0009162708884105086,-0.00030542362947016954
1708009834288769800,13.070769775390625,-0.0010689827613532543,-0.00030542362947016954,-0.00030542362947016954
1708009834307325200,13.0893251953125,0.00015271181473508477,0.00030542362947016954,0.0009162708884105086
1708009834325880800,13.107880859375,0.001374406274408102,0.0015271181473508477,-0.0009162708884105086
1708009834344436200,13.126436279296875,0.00015271181473508477,-0.0009162708884105086,-0.00030542362947016954
1708009834362991600,13.14499169921875,0.0007635590736754239,-0.00030542362947016954,-0.00030542362947016954
1708009834381547300,13.16354736328125,-0.0010689827613532543,-0.0009162708884105086,-0.0009162708884105086
1708009834400102700,13.1821025390625,0.00015271181473508477,0.00030542362947016954,-0.00030542362947016954
1708009834418658000,13.200657958984374,-0.0010689827613532543,-0.00030542362947016954,-0.00030542362947016954
1708009834437213700,13.219213623046874,0.00015271181473508477,0.0007635590736754239,0.00030542362947016954
1708009834455769000,13.23776904296875,0.00015271181473508477,-0.00030542362947016954,0.0009162708884105086
1708009834474324700,13.25632470703125,0.00015271181473508477,-0.0009162708884105086,-0.00030542362947016954
1708009834492880100,13.274880126953125,-0.0004581354442052543,-0.00030542362947016954,-0.00030542362947016954
1708009834511435500,13.293435546875,0.00015271181473508477,0.0009162708884105086,-0.00030542362947016954
1708009834529991000,13.311990966796875,0.00015271181473508477,0.0009162708884105086,-0.00030542362947016954
1708009834548546600,13.330546630859375,0.00015271181473508477,-0.00030542362947016954,-0.0009162708884105086
1708009834567102000,13.34910205078125,0.0007635590736754239,0.00030542362947016954,0.00030542362947016954
1708009834585657600,13.36765771484375,0.00015271181473508477,-0.0015271181473508477,0.00030542362947016954
1708009834604213000,13.386212890625,0.00015271181473508477,0.0015271181473508477,0.00030542362947016954
1708009834622768400,13.404768310546874,-0.0004581354442052543,0.00030542362947016954,-0.00030542362947016954
1708009834641324000,13.423323974609374,0.0007635590736754239,-0.0009162708884105086,-0.0015271181473508477
1708009834659879400,13.44187939453125,0.00015271181473508477,-0.00030542362947016954,-0.00030542362947016954
1708009834678434800,13.460434814453125,-0.0004581354442052543,-0.0009162708884105086,-0.00030542362947016954
1708009834696990500,13.478990478515625,0.00015271181473508477,0.00030542362947016954,0.00030542362947016954
1708009834715545900,13.4975458984375,0.00015271181473508477,-0.00030542362947016954,0.0009162708884105086
1708009834734101200,13.516101318359375,0.00015271181473508477,-0.0009162708884105086,0.0009162708884105086
1708009834752657000,13.534656982421875,-0.0010689827613532543,0.00030542362947016954,-0.00030542362947016954
1708009834771212300,13.55321240234375,-0.0004581354442052543,-0.0009162708884105086,0.00030542362947016954
1708009834789767700,13.571767578125,-0.0010689827613532543,0.00030542362947016954,0.0009162708884105086
1708009834808323300,13.5903232421875,0.00015271181473508477,-0.00030542362947016954,0.00030542362947016954
1708009834826878700,13.608878662109374,-0.0004581354442052543,0.0009162708884105086,0.00030542362947016954
1708009834845434400,13.627434326171874,-0.0004581354442052543,-0.0009162708884105086,-0.00030542362947016954
1708009834863989800,13.64598974609375,0.00015271181473508477,0.0015271181473508477,0.00030542362947016954
1708009834882545200,13.664545166015625,0.0007635590736754239,-0.0015271181473508477,0.0015271181473508477
1708009834901100800,13.683100830078125,-0.0010689827613532543,0.0009162708884105086,-0.00030542362947016954
1708009834919656200,13.70165625,-0.0010689827613532543,0.00030542362947016954,-0.00030542362947016954
1708009834938211600,13.720211669921875,0.0007635590736754239,-0.00030542362947016954,0.0009162708884105086
1708009834956767200,13.738767333984375,0.0007635590736754239,0.0009162708884105086,0.00030542362947016954
1708009834975322600,13.757322509765626,-0.0010689827613532543,0.0009162708884105086,0.00030542362947016954
1708009834993878300,13.775878173828126,-0.0004581354442052543,0.00030542362947016954,0.00030542362947016954
1708009835012433700,13.79443359375,0.0007635590736754239,-0.0009162708884105086,-0.00030542362947016954
1708009835030989000,13.812989013671874,-0.0004581354442052543,0.00030542362947016954,0.00030542362947016954
1708009835049544700,13.831544677734374,0.0007635590736754239,-0.00030542362947016954,-0.00030542362947016954
1708009835068100000,13.85010009765625,0.00015271181473508477,0.001374406274408102,-0.00030542362947016954
1708009835086655500,13.868655517578125,-0.0004581354442052543,-0.00030542362947016954,0.00030542362947016954
1708009835105211100,13.887211181640625,0.00015271181473508477,-0.00030542362947016954,-0.0009162708884105086
1708009835123766500,13.9057666015625,-0.0004581354442052543,0.0009162708884105086,0.00030542362947016954
1708009835142322000,13.924322021484375,0.00015271181473508477,0.00030542362947016954,0.00030542362947016954
1708009835160877600,13.942877685546875,0.0007635590736754239,0.00030542362947016954,0.00030542362947016954
1708009835179433000,13.961432861328126,0.00015271181473508477,0.00030542362947016954,-0.00030542362947016954
1708009835197988600,13.979988525390626,-0.0010689827613532543,0.0009162708884105086,-0.0009162708884105086
1708009835216544000,13.9985439453125,-0.0004581354442052543,-0.00030542362947016954,-0.0015271181473508477
1708009835235099400,14.017099365234374,0.0007635590736754239,-0.00030542362947016954,0.00030542362947016954
1708009835253655000,14.035655029296874,0.00015271181473508477,-0.00030542362947016954,0.00030542362947016954
1708009835272210400,14.05421044921875,0.00015271181473508477,-0.00030542362947016954,-0.00030542362947016954
1708009835290766000,14.07276611328125,-0.0004581354442052543,-0.0009162708884105086,-0.00030542362947016954
1708009835309321500,14.091321533203125,-0.0004581354442052543,0.0015271181473508477,0.00030542362947016954
1708009835327876900,14.109876953125,0.0007635590736754239,0.00030542362947016954,0.00030542362947016954
1708009835346432500,14.1284326171875,0.0007635590736754239,0.0009162708884105086,0.00030542362947016954
1708009835364988000,14.14698779296875,0.00015271181473508477,-0.00030542362947016954,-0.00030542362947016954
1708009835383543300,14.165543212890626,0.00015271181473508477,-0.00030542362947016954,0.00030542362947016954
1708009835402099000,14.184098876953126,0.00015271181473508477,-0.00030542362947016954,0.00030542362947016954
1708009835420654300,14.202654296875,-0.0010689827613532543,0.0009162708884105086,0.00030542362947016954
1708009835439210000,14.2212099609375,-0.0004581354442052543,0.00030542362947016954,-0.00030542362947016954
1708009835457765400,14.239765380859374,-0.0010689827613532543,-0.00030542362947016954,0.0009162708884105086
1708009835476320800,14.25832080078125,0.00015271181473508477,0.00030542362947016954,0.00030542362947016954
1708009835494876400,14.27687646484375,-0.0004581354442052543,-0.00030542362947016954,-0.00030542362947016954
1708009835513431800,14.295431884765625,0.00015271181473508477,-0.00030542362947016954,-0.0009162708884105086
1708009835531987200,14.3139873046875,0.0007635590736754239,0.00030542362947016954,0.0009162708884105086
1708009835550542800,14.33254296875,0.00015271181473508477,0.00030542362947016954,0.00030542362947016954
1708009835569098200,14.35109814453125,0.00015271181473508477,0.00030542362947016954,-0.00030542362947016954
1708009835587654000,14.36965380859375,0.00015271181473508477,-0.00030542362947016954,0.00030542362947016954
1708009835606209300,14.388209228515626,0.00015271181473508477,-0.0009162708884105086,0.00030542362947016954
1708009835624765000,14.406764892578124,0.00015271181473508477,0.0009162708884105086,0.0009162708884105086
1708009835643320300,14.4253203125,0.0007635590736754239,0.0009162708884105086,0.0009162708884105086
1708009835661875700,14.443875732421875,-0.0004581354442052543,-0.00030542362947016954,-0.0009162708884105086
1708009835680431400,14.462431396484375,-0.0004581354442052543,-0.00030542362947016954,0.0009162708884105086
1708009835698986800,14.48098681640625,0.00015271181473508477,-0.00030542362947016954,0.00030542362947016954
1708009835717542100,14.499542236328125,0.00015271181473508477,-0.00030542362947016954,-0.0009162708884105086
1708009835736097800,14.518097900390625,0.00015271181473508477,0.0009162708884105086,0.00030542362947016954
1708009835754653200,14.536653076171875,-0.0004581354442052543,-0.00030542362947016954,0.00030542362947016954
1708009835773208800,14.555208740234375,0.00015271181473508477,0.00030542362947016954,0.00030542362947016954
1708009835791764200,14.57376416015625,-0.0004581354442052543,0.0009162708884105086,-0.00030542362947016954
1708009835810320000,14.59231982421875,0.00015271181473508477,-0.00030542362947016954,0.00030542362947016954
1708009835828875300,14.610875244140624,0.00015271181473508477,-0.00030542362947016954,0.00030542362947016954
1708009835847430700,14.6294306640625,0.00015271181473508477,-0.00030542362947016954,-0.00030542362947016954
1708009835865986300,14.647986328125,-0.0004581354442052543,-0.0009162708884105086,0.0015271181473508477
1708009835884541700,14.666541748046875,-0.0004581354442052543,0.00030542362947016954,0.0009162708884105086
1708009835903097000,14.68509716796875,0.00015271181473508477,0.00030542362947016954,0.00030542362947016954
1708009835921652700,14.70365283203125,0.00015271181473508477,0.0009162708884105086,-0.0009162708884105086
1708009835940208000,14.7222080078125,-0.0004581354442052543,-0.00030542362947016954,-0.00030542362947016954
1708009835958763800,14.740763671875,0.0007635590736754239,0.0015271181473508477,0.0009162708884105086
1708009835977319200,14.759319091796876,0.00015271181473508477,0.0015271181473508477,0.0009162708884105086
1708009835995874800,14.777874755859376,-0.0004581354442052543,0.00030542362947016954,-0.00030542362947016954
1708009836014430200,14.79643017578125,-0.0004581354442052543,0.00030542362947016954,0.00030542362947016954
1708009836032985600,14.814985595703124,0.00015271181473508477,0.0009162708884105086,-0.00030542362947016954
1708009836051541200,14.833541259765624,-0.0010689827613532543,0.00030542362947016954,0.00030542362947016954
1708009836070096600,14.8520966796875,0.00015271181473508477,-0.00030542362947016954,-0.00030542362947016954
1708009836088652300,14.87065234375,-0.0004581354442052543,-0.00030542362947016954,0.00030542362947016954
1708009836107207700,14.889207763671875,0.00015271181473508477,0.0015271181473508477,-0.00030542362947016954
1708009836125763300,14.907763427734375,-0.0004581354442052543,-0.0009162708884105086,0.0009162708884105086
1708009836144318700,14.926318603515625,0.00015271181473508477,-0.00030542362947016954,0.00030542362947016954
1708009836162874000,14.9448740234375,-0.0010689827613532543,0.0009162708884105086,0.00030542362947016954
1708009836181429800,14.9634296875,0.0007635590736754239,0.00030542362947016954,0.0009162708884105086
1708009836199985200,14.981985107421876,0.00015271181473508477,-0.00030542362947016954,-0.00030542362947016954
1708009836218540800,15.000540771484374,0.00015271181473508477,-0.00030542362947016954,-0.0009162708884105086
1708009836237096200,15.01909619140625,-0.0010689827613532543,-0.00030542362947016954,-0.00030542362947016954
1708009836255651600,15.037651611328124,0.00015271181473508477,0.0009162708884105086,-0.0009162708884105086
1708009836274207200,15.056207275390625,-0.0004581354442052543,0.0015271181473508477,-0.00030542362947016954
1708009836292762600,15.0747626953125,0.00015271181473508477,-0.00030542362947016954,-0.0009162708884105086
1708009836311318300,15.093318359375,-0.0016798300202935934,0.00015271181473508477,0.00030542362947016954
1708009836329873700,15.111873779296875,-0.0004581354442052543,0.0007635590736754239,0.00030542362947016954
1708009836348429300,15.13042919921875,0.0007635590736754239,-0.0010689827613532543,0.0009162708884105086
1708009836366984700,15.148984619140625,0.00015271181473508477,0.0007635590736754239,0.0009162708884105086
1708009836385540000,15.1675400390625,-0.0004581354442052543,0.00015271181473508477,0.00030542362947016954
1708009836404095700,15.186095703125,0.00015271181473508477,0.00015271181473508477,0.00030542362947016954
1708009836422651100,15.204651123046874,0.0007635590736754239,0.001374406274408102,-0.00030542362947016954
1708009836441206800,15.223206787109374,0.001374406274408102,-0.0004581354442052543,-0.0009162708884105086
1708009836459762200,15.24176220703125,-0.0004581354442052543,0.001374406274408102,0.00030542362947016954
1708009836478317800,15.26031787109375,0.0007635590736754239,0.0007635590736754239,0.0009162708884105086
1708009836496873200,15.278873291015625,-0.0004581354442052543,0.00015271181473508477,-0.00030542362947016954
1708009836515428600,15.2974287109375,0.00015271181473508477,0.0007635590736754239,0.00030542362947016954
1708009836533984300,15.315984375,-0.0004581354442052543,-0.0010689827613532543,0.00030542362947016954
1708009836552539600,15.33453955078125,0.00015271181473508477,0.00015271181473508477,0.00030542362947016954
1708009836571095300,15.35309521484375,0.00015271181473508477,-0.0010689827613532543,-0.00030542362947016954
1708009836589650700,15.371650634765626,0.00015271181473508477,0.00015271181473508477,-0.0015271181473508477
1708009836608206300,15.390206298828126,0.00015271181473508477,0.0007635590736754239,0.00030542362947016954
1708009836626761700,15.40876171875,0.0007635590736754239,-0.0004581354442052543,-0.00030542362947016954
1708009836645317000,15.427317138671874,0.00015271181473508477,-0.0004581354442052543,0.00030542362947016954
1708009836663872800,15.445872802734375,0.0007635590736754239,-0.0004581354442052543,-0.00030542362947016954
1708009836682428200,15.46442822265625,-0.0004581354442052543,0.00015271181473508477,0.00030542362947016954
1708009836700983800,15.48298388671875,-0.0004581354442052543,0.00015271181473508477,0.00030542362947016954
1708009836719539200,15.501539306640625,0.00015271181473508477,-0.0010689827613532543,-0.00030542362947016954
1708009836738094800,15.5200947265625,0.00015271181473508477,-0.0004581354442052543,0.0009162708884105086
1708009836756650200,15.538650146484375,-0.0004581354442052543,0.001374406274408102,0.00030542362947016954
1708009836775205600,15.55720556640625,0.0007635590736754239,-0.0004581354442052543,-0.00030542362947016954
1708009836793761300,15.57576123046875,0.00015271181473508477,0.0007635590736754239,0.0009162708884105086
1708009836812316700,15.594316650390626,-0.0004581354442052543,0.00015271181473508477,-0.00030542362947016954
1708009836830872300,15.612872314453124,0.0007635590736754239,-0.0004581354442052543,0.0009162708884105086
1708009836849427700,15.631427734375,0.0007635590736754239,-0.0010689827613532543,-0.00030542362947016954
1708009836867983400,15.6499833984375,-0.0004581354442052543,-0.0010689827613532543,-0.00030542362947016954
1708009836886538800,15.668538818359375,0.0007635590736754239,0.00015271181473508477,0.00030542362947016954
1708009836905094400,15.687094482421875,-0.0010689827613532543,-0.0004581354442052543,0.00030542362947016954
1708009836923649800,15.70564990234375,0.00015271181473508477,-0.0022906772792339325,-0.0009162708884105086
1708009836942205400,15.724205322265625,0.00015271181473508477,-0.0004581354442052543,-0.00030542362947016954
1708009836960760800,15.7427607421875,-0.0004581354442052543,0.00015271181473508477,0.0009162708884105086
1708009836979316200,15.761316162109376,-0.0004581354442052543,-0.0010689827613532543,0.0009162708884105086
1708009836997871900,15.779871826171876,0.00015271181473508477,-0.0004581354442052543,0.0009162708884105086
1708009837016427300,15.79842724609375,0.00015271181473508477,0.001374406274408102,-0.00030542362947016954
1708009837034983000,15.81698291015625,-0.0004581354442052543,0.00015271181473508477,0.00030542362947016954
1708009837053538300,15.835538330078125,-0.0004581354442052543,0.0007635590736754239,0.0009162708884105086
1708009837072094000,15.854093994140625,0.00015271181473508477,0.0007635590736754239,0.0009162708884105086
1708009837090649300,15.8726494140625,-0.0004581354442052543,0.00015271181473508477,0.00030542362947016954
1708009837109205000,15.891205078125,0.00015271181473508477,-0.0004581354442052543,-0.00030542362947016954
1708009837127760400,15.909760498046875,0.001374406274408102,0.0007635590736754239,0.0009162708884105086
1708009837146316000,15.92831591796875,0.0007635590736754239,-0.0004581354442052543,0.0009162708884105086
1708009837164871400,15.946871337890625,0.0007635590736754239,-0.0010689827613532543,-0.00030542362947016954
1708009837183426800,15.9654267578125,0.0007635590736754239,-0.0004581354442052543,-0.00030542362947016954
1708009837201982500,15.983982421875,0.001374406274408102,-0.0004581354442052543,-0.0009162708884105086
1708009837220537900,16.002537841796876,0.001374406274408102,-0.0004581354442052543,-0.00030542362947016954
1708009837239093500,16.021093505859376,0.001374406274408102,-0.0010689827613532543,-0.00030542362947016954
1708009837257649000,16.03964892578125,0.00015271181473508477,-0.0004581354442052543,-0.00030542362947016954
1708009837276204500,16.05820458984375,0.00015271181473508477,-0.0004581354442052543,-0.00030542362947016954
1708009837294760000,16.076760009765625,0.0007635590736754239,0.00015271181473508477,0.00030542362947016954
1708009837313315600,16.095315673828125,-0.0004581354442052543,-0.0004581354442052543,0.0009162708884105086
1708009837331871000,16.11387109375,0.00015271181473508477,-0.0004581354442052543,0.00030542362947016954
1708009837350426600,16.132426513671874,0.00015271181473508477,0.0007635590736754239,0.0009162708884105086
1708009837368982000,16.15098193359375,-0.0004581354442052543,-0.0010689827613532543,-0.00030542362947016954
1708009837387537400,16.169537353515626,-0.0010689827613532543,-0.0004581354442052543,0.00030542362947016954
1708009837406093000,16.188093017578126,-0.0004581354442052543,-0.0004581354442052543,0.00030542362947016954
1708009837424648400,16.2066484375,-0.0004581354442052543,0.00015271181473508477,-0.00030542362947016954
1708009837443204000,16.2252041015625,0.0007635590736754239,-0.0004581354442052543,0.00030542362947016954
1708009837461759500,16.243759521484375,0.0007635590736754239,-0.0010689827613532543,-0.0015271181473508477
1708009837480315100,16.262315185546875,0.0007635590736754239,0.00015271181473508477,0.0009162708884105086
1708009837498870500,16.28087060546875,-0.0004581354442052543,-0.0004581354442052543,0.00030542362947016954
1708009837517426200,16.29942626953125,0.001374406274408102,-0.0004581354442052543,-0.00030542362947016954
1708009837535981600,16.317981689453124,0.00015271181473508477,0.001374406274408102,-0.00030542362947016954
1708009837554537200,16.336537109375,0.001374406274408102,-0.0004581354442052543,-0.00030542362947016954
1708009837573092600,16.355092529296876,0.00015271181473508477,0.00015271181473508477,-0.00030542362947016954
1708009837591648300,16.373648193359376,0.00015271181473508477,-0.0004581354442052543,0.0009162708884105086
1708009837610203600,16.39220361328125,0.0007635590736754239,-0.0010689827613532543,0.00030542362947016954
1708009837628759300,16.41075927734375,-0.0010689827613532543,0.0007635590736754239,-0.00030542362947016954
1708009837647314700,16.429314697265625,0.00015271181473508477,-0.0004581354442052543,0.00030542362947016954
1708009837665870300,16.447870361328125,0.00015271181473508477,-0.0004581354442052543,0.00030542362947016954
1708009837684425700,16.46642578125,-0.0004581354442052543,-0.0004581354442052543,-0.00030542362947016954
1708009837702981400,16.4849814453125,0.00015271181473508477,0.00015271181473508477,-0.0009162708884105086
1708009837721536800,16.503536865234373,-0.0004581354442052543,0.00015271181473508477,0.0009162708884105086
1708009837740092400,16.522092529296874,0.00015271181473508477,0.0007635590736754239,0.00030542362947016954
1708009837758647800,16.540647705078126,0.00015271181473508477,0.00015271181473508477,0.0009162708884105086
1708009837777203500,16.559203369140626,0.00015271181473508477,0.00015271181473508477,0.00030542362947016954
1708009837795758800,16.5777587890625,-0.0004581354442052543,0.0007635590736754239,-0.00030542362947016954
1708009837814314500,16.596314453125,0.00015271181473508477,-0.0004581354442052543,-0.00030542362947016954
1708009837832870000,16.614869873046874,0,0.00015271181473508477,0.00015271181473508477
1708009837851425500,16.633425537109375,0,0.00015271181473508477,-0.0004581354442052543
1708009837869981000,16.65198095703125,-0.0006108472589403391,0.00015271181473508477,-0.0004581354442052543
1708009837888536600,16.67053662109375,-0.0006108472589403391,-0.0004581354442052543,0.0007635590736754239
1708009837907092000,16.689092041015623,-0.0012216945178806782,-0.0004581354442052543,-0.0004581354442052543
1708009837925647600,16.707647705078124,-0.0006108472589403391,0.0007635590736754239,0.00015271181473508477
1708009837944203000,16.726203125,0.0006108472589403391,0.00015271181473508477,-0.0004581354442052543
1708009837962758700,16.744758544921876,0,0.00015271181473508477,0.00015271181473508477
1708009837981314000,16.76331396484375,0.0006108472589403391,-0.0010689827613532543,-0.0004581354442052543
1708009837999869700,16.78186962890625,0,0.00015271181473508477,-0.0004581354442052543
1708009838018425000,16.800425048828124,0.0006108472589403391,-0.0004581354442052543,-0.0010689827613532543
1708009838036980700,16.818980712890625,0.0006108472589403391,0.00015271181473508477,-0.0004581354442052543
1708009838055536000,16.8375361328125,0,0.00015271181473508477,0.00015271181473508477
1708009838074091800,16.856091796875,-0.0006108472589403391,-0.0004581354442052543,-0.0016798300202935934
1708009838092647200,16.874647216796873,0.0006108472589403391,-0.0010689827613532543,0.0007635590736754239
1708009838111202800,16.893202880859373,-0.0006108472589403391,0.00015271181473508477,-0.0004581354442052543
1708009838129758200,16.91175830078125,0,-0.0010689827613532543,-0.0004581354442052543
1708009838148313900,16.93031396484375,0,-0.0004581354442052543,-0.0004581354442052543
1708009838166869200,16.948869140625,0,0.00015271181473508477,0.00015271181473508477
1708009838185425000,16.9674248046875,0.0006108472589403391,-0.0004581354442052543,-0.0004581354442052543
1708009838203980300,16.985980224609374,0.0006108472589403391,0.00015271181473508477,-0.0004581354442052543
1708009838222536000,17.004535888671874,0.0006108472589403391,0.00015271181473508477,0.00015271181473508477
1708009838241091300,17.02309130859375,0.0006108472589403391,-0.0010689827613532543,-0.0004581354442052543
1708009838259647000,17.04164697265625,0,-0.0004581354442052543,0.00015271181473508477
1708009838278202400,17.060202392578127,0,0.00015271181473508477,0.0007635590736754239
1708009838296758000,17.078758056640623,0,0.00015271181473508477,0.0007635590736754239
1708009838315313400,17.0973134765625,-0.0012216945178806782,0.0007635590736754239,0.0007635590736754239
1708009838333869000,17.115869140625,0,-0.0004581354442052543,-0.0004581354442052543
1708009838352424400,17.134424560546876,-0.0006108472589403391,-0.0004581354442052543,0.00015271181473508477
1708009838370980000,17.15297998046875,0.0006108472589403391,0.00015271181473508477,-0.0010689827613532543
1708009838389535700,17.17153564453125,0,-0.0010689827613532543,0.00015271181473508477
1708009838408091100,17.190091064453124,-0.0006108472589403391,0.00015271181473508477,0.00015271181473508477
1708009838426646800,17.208646728515625,0.0006108472589403391,-0.0004581354442052543,0.0007635590736754239
1708009838445202200,17.2272021484375,0.0006108472589403391,-0.0010689827613532543,0.00015271181473508477
1708009838463757800,17.2457578125,0,0.00015271181473508477,-0.0004581354442052543
1708009838482313200,17.264313232421873,0,0.00015271181473508477,-0.0004581354442052543
1708009838500868900,17.282868896484374,0.0006108472589403391,0.00015271181473508477,-0.0004581354442052543
1708009838519424300,17.30142431640625,0,0.00015271181473508477,0.00015271181473508477
1708009838537980000,17.31997998046875,0,-0.0016798300202935934,0.00015271181473508477
1708009838556535300,17.338535400390626,0,-0.0004581354442052543,-0.0004581354442052543
1708009838575091000,17.357091064453126,-0.0006108472589403391,-0.0004581354442052543,0.00015271181473508477
1708009838593646300,17.375646240234374,0,-0.0004581354442052543,0.00015271181473508477
1708009838612202000,17.394201904296875,0,0.00015271181473508477,-0.0004581354442052543
1708009838630757600,17.412757568359375,0,-0.0016798300202935934,0.00015271181473508477
1708009838649313000,17.43131298828125,0,-0.0010689827613532543,-0.0004581354442052543
1708009838667868700,17.44986865234375,0.0006108472589403391,-0.0010689827613532543,0.0007635590736754239
1708009838686424000,17.468424072265623,-0.0006108472589403391,0.00015271181473508477,0.00015271181473508477
1708009838704979700,17.486979736328124,0,0.00015271181473508477,0.00015271181473508477
1708009838723535000,17.50553515625,0,0.00015271181473508477,-0.0004581354442052543
1708009838742090800,17.5240908203125,0,0.00015271181473508477,-0.0004581354442052543
1708009838760646100,17.542646240234376,0,0.0007635590736754239,-0.0004581354442052543
1708009838779201800,17.561201904296876,-0.0006108472589403391,0.0007635590736754239,0.00015271181473508477
1708009838797757200,17.579757080078124,-0.0006108472589403391,0.00015271181473508477,-0.0004581354442052543
1708009838816312800,17.598312744140625,0,0.0007635590736754239,0.00015271181473508477
1708009838834868500,17.616868408203125,0.0006108472589403391,0.0007635590736754239,-0.0004581354442052543
1708009838853423900,17.635423828125,-0.0006108472589403391,0.00015271181473508477,0.00015271181473508477
1708009838871979500,17.6539794921875,0.0006108472589403391,0.001374406274408102,0.001374406274408102
1708009838890535000,17.672534912109374,0,-0.0010689827613532543,0.0007635590736754239
1708009838909090600,17.691090576171874,-0.0012216945178806782,0.0007635590736754239,-0.0004581354442052543
1708009838927646000,17.70964599609375,-0.0006108472589403391,-0.0010689827613532543,-0.0004581354442052543
1708009838946201600,17.72820166015625,-0.0012216945178806782,0.00015271181473508477,0.0007635590736754239
1708009838964757000,17.746757080078126,0.0012216945178806782,0.001374406274408102,0.00015271181473508477
1708009838983312600,17.765312744140626,0.0006108472589403391,0.00015271181473508477,-0.0004581354442052543
1708009839001868000,17.783867919921875,0,0.00015271181473508477,0.0007635590736754239
1708009839020423700,17.802423583984375,0,0.0007635590736754239,-0.0004581354442052543
1708009839038979300,17.820979248046875,0,-0.0004581354442052543,-0.0004581354442052543
1708009839057534700,17.83953466796875,0,0.00015271181473508477,0.00015271181473508477
1708009839076090400,17.85809033203125,-0.0012216945178806782,-0.0004581354442052543,-0.0004581354442052543
1708009839094645800,17.876645751953124,0,0.00015271181473508477,-0.0010689827613532543
1708009839113201400,17.895201416015624,0.0006108472589403391,-0.0022906772792339325,0.00015271181473508477
1708009839131756800,17.9137568359375,-0.0006108472589403391,0.00015271181473508477,-0.0004581354442052543
1708009839150312400,17.9323125,0,-0.0016798300202935934,0.00015271181473508477
1708009839168868000,17.9508681640625,0.0006108472589403391,-0.0004581354442052543,0.00015271181473508477
1708009839187423500,17.969423583984376,0.0006108472589403391,0.00015271181473508477,0.00015271181473508477
1708009839205979100,17.987979248046877,0.0006108472589403391,-0.0004581354442052543,-0.0004581354442052543
1708009839224534500,18.006534423828125,0.0012216945178806782,-0.0010689827613532543,-0.0004581354442052543
1708009839243090200,18.025090087890625,0.0006108472589403391,0.00015271181473508477,0.00015271181473508477
1708009839261645600,18.0436455078125,0,0.0007635590736754239,0.00015271181473508477
1708009839280201200,18.062201171875,0,0.0007635590736754239,-0.0004581354442052543
1708009839298756900,18.0807568359375,0,0.00015271181473508477,-0.0004581354442052543
1708009839317312300,18.099312255859374,-0.0006108472589403391,-0.0004581354442052543,0.00015271181473508477
1708009839335868000,18.117867919921874,0,0.0007635590736754239,-0.0004581354442052543
1708009839354423300,18.13642333984375,0,0.0009162708884105086,0.00030542362947016954
1708009839372979000,18.15497900390625,0,-0.0015271181473508477,0.0009162708884105086
1708009839391534300,18.173534423828126,0,-0.0009162708884105086,0.00030542362947016954
1708009839410090000,18.192090087890627,0.0006108472589403391,-0.00030542362947016954,0.00030542362947016954
1708009839428645400,18.210645263671875,0,-0.00030542362947016954,0.00030542362947016954
1708009839447201000,18.229200927734375,0,-0.00030542362947016954,-0.00030542362947016954
1708009839465756700,18.247756591796875,0.0006108472589403391,0.00030542362947016954,0.00030542362947016954
1708009839484312000,18.26631201171875,-0.0006108472589403391,0.0009162708884105086,-0.00030542362947016954
1708009839502867700,18.28486767578125,0.0006108472589403391,-0.0015271181473508477,-0.00030542362947016954
1708009839521423000,18.303423095703124,0,-0.0009162708884105086,0.0009162708884105086
1708009839539978800,18.321978759765624,-0.0006108472589403391,-0.00030542362947016954,-0.0009162708884105086
1708009839558534400,18.340534423828124,-0.0012216945178806782,0.0009162708884105086,-0.00030542362947016954
1708009839577089800,18.35908984375,-0.0012216945178806782,0.0009162708884105086,-0.00030542362947016954
1708009839595645400,18.3776455078125,0,-0.0009162708884105086,0.00030542362947016954
1708009839614200800,18.396200927734377,0,0.0009162708884105086,0.00030542362947016954
1708009839632756500,18.414756591796873,0,0.00030542362947016954,-0.00030542362947016954
1708009839651311900,18.433311767578125,-0.0006108472589403391,0.0015271181473508477,-0.00030542362947016954
1708009839669867500,18.451867431640625,0,0.00030542362947016954,0.0009162708884105086
1708009839688423200,18.470423095703126,-0.0006108472589403391,-0.00030542362947016954,-0.0009162708884105086
1708009839706978600,18.488978515625,-0.0006108472589403391,-0.0015271181473508477,-0.00030542362947016954
1708009839725534200,18.5075341796875,0,0.0009162708884105086,-0.0009162708884105086
1708009839744089600,18.526089599609374,0,0.0015271181473508477,0.00030542362947016954
1708009839762645200,18.544645263671875,0.0006108472589403391,-0.0009162708884105086,0.00030542362947016954
1708009839781200600,18.56320068359375,0,0.00030542362947016954,0.00030542362947016954
1708009839799756300,18.58175634765625,0,-0.00030542362947016954,-0.0009162708884105086
1708009839818312000,18.60031201171875,0.0006108472589403391,0.00030542362947016954,0.0009162708884105086
1708009839836867300,18.618867431640624,0,-0.0009162708884105086,0.00030542362947016954
1708009839855423000,18.637423095703124,0,-0.00030542362947016954,-0.00030542362947016954
1708009839873978400,18.655978271484376,0,0.0009162708884105086,0.0009162708884105086
1708009839892534000,18.674533935546876,-0.0006108472589403391,-0.00030542362947016954,0.00030542362947016954
1708009839911089700,18.693089599609376,0.0006108472589403391,-0.00030542362947016954,-0.00030542362947016954
1708009839929645000,18.71164501953125,0,-0.00030542362947016954,-0.0009162708884105086
1708009839948200700,18.73020068359375,0,-0.00030542362947016954,0.00030542362947016954
1708009839966756000,18.748756103515625,-0.0006108472589403391,0.00030542362947016954,0.00030542362947016954
1708009839985311700,18.767311767578125,0.0012216945178806782,0.00030542362947016954,0.0009162708884105086
1708009840003867400,18.785867431640625,0.0012216945178806782,-0.0009162708884105086,-0.00030542362947016954
1708009840022422800,18.8044228515625,0,0.00030542362947016954,-0.0009162708884105086
1708009840040978400,18.822978515625,0,0.00030542362947016954,-0.00030542362947016954
1708009840059533800,18.841533935546874,0,0.00030542362947016954,-0.00030542362947016954
1708009840078089500,18.86008935546875,0.0012216945178806782,-0.00030542362947016954,0.00030542362947016954
1708009840096645000,18.87864501953125,0,-0.0009162708884105086,-0.00030542362947016954
1708009840115200500,18.897200439453126,0.0006108472589403391,-0.00030542362947016954,-0.00030542362947016954
1708009840133756200,18.915756103515626,0,0.00030542362947016954,-0.00030542362947016954
1708009840152311800,18.934311767578127,0.0006108472589403391,-0.00030542362947016954,0.00030542362947016954
1708009840170867200,18.9528671875,0,0.0009162708884105086,-0.00030542362947016954
1708009840189422800,18.9714228515625,0,-0.00030542362947016954,-0.00030542362947016954
1708009840207978200,18.989978271484375,0,-0.00030542362947016954,-0.00030542362947016954
1708009840226534000,19.008533935546875,0,0.0009162708884105086,-0.00030542362947016954
1708009840245089300,19.02708935546875,0.0006108472589403391,0.00030542362947016954,-0.00030542362947016954
1708009840263645000,19.04564501953125,0,0.0009162708884105086,-0.0009162708884105086
1708009840282200600,19.06420068359375,0,0.0015271181473508477,0.00030542362947016954
1708009840300756000,19.082755859375,0,-0.0009162708884105086,0.00030542362947016954
1708009840319311600,19.1013115234375,0,0.0009162708884105086,0.00030542362947016954
1708009840337867300,19.1198671875,-0.0006108472589403391,0.00030542362947016954,-0.00030542362947016954
1708009840356422700,19.138422607421877,0,-0.00030542362947016954,-0.0009162708884105086
1708009840374978300,19.156978271484373,0,0.00030542362947016954,0.00030542362947016954
1708009840393533700,19.17553369140625,0,-0.00030542362947016954,0.0009162708884105086
1708009840412089300,19.19408935546875,0,0.00030542362947016954,-0.0009162708884105086
1708009840430645000,19.21264501953125,0.0006108472589403391,0.00030542362947016954,0.00030542362947016954
1708009840449200400,19.231200439453126,0.0006108472589403391,0.00030542362947016954,0.00030542362947016954
1708009840467756000,19.249756103515626,-0.0006108472589403391,0.0009162708884105086,-0.0009162708884105086
1708009840486311400,19.2683115234375,-0.0012216945178806782,-0.0009162708884105086,-0.00030542362947016954
1708009840504867000,19.2868671875,0.0006108472589403391,0.00030542362947016954,-0.00030542362947016954
1708009840523422700,19.305422607421875,-0.0006108472589403391,-0.00030542362947016954,0.00030542362947016954
1708009840541978000,19.32397802734375,-0.0006108472589403391,0.00030542362947016954,0.00030542362947016954
1708009840560533800,19.34253369140625,0,0.00030542362947016954,0.00030542362947016954
1708009840579089400,19.36108935546875,0,0.00030542362947016954,0.00030542362947016954
1708009840597644800,19.379644775390624,0,0.0009162708884105086,-0.00030542362947016954
1708009840616200400,19.398200439453124,0,0.00030542362947016954,-0.0015271181473508477
1708009840634755800,19.416755859375,0,0.0009162708884105086,-0.0009162708884105086
1708009840653311500,19.4353115234375,0,-0.0009162708884105086,-0.00030542362947016954
1708009840671867100,19.4538671875,0,0.00030542362947016954,-0.00030542362947016954
1708009840690422500,19.472422607421876,0.0006108472589403391,0.0009162708884105086,0.0009162708884105086
1708009840708978200,19.490978271484376,-0.0012216945178806782,0.00030542362947016954,0.00030542362947016954
1708009840727533800,19.509533935546877,-0.0006108472589403391,0.00030542362947016954,-0.00030542362947016954
1708009840746089200,19.528089111328125,0,-0.00030542362947016954,-0.0009162708884105086
1708009840764644900,19.546644775390625,0,-0.0009162708884105086,0.00030542362947016954
1708009840783200300,19.5652001953125,0,-0.00030542362947016954,-0.00030542362947016954
1708009840801756000,19.583755859375,0,0.00030542362947016954,-0.00030542362947016954
1708009840820311600,19.6023115234375,-0.0006108472589403391,0.00030542362947016954,0.0015271181473508477
1708009840838867000,19.620866943359374,-0.0006108472589403391,-0.0009162708884105086,-0.0015271181473508477
1708009840857422600,19.639422607421874,-0.0006108472589403391,0.00015271181473508477,0.00030542362947016954
1708009840875978200,19.657978271484374,0,-0.0004581354442052543,0.0009162708884105086
1708009840894533600,19.67653369140625,0,-0.0004581354442052543,0.0009162708884105086
1708009840913089300,19.69508935546875,-0.0006108472589403391,-0.0010689827613532543,0.00030542362947016954
1708009840931644700,19.713644775390627,0,0.00015271181473508477,-0.0009162708884105086
1708009840950200300,19.732200439453123,0,0.00015271181473508477,0.00030542362947016954
1708009840968756000,19.750755859375,0.0012216945178806782,0.0007635590736754239,-0.00030542362947016954
1708009840987311400,19.769311279296875,0.0012216945178806782,0.00015271181473508477,0.00030542362947016954
1708009841005867000,19.787866943359376,0.0006108472589403391,-0.0004581354442052543,0.00030542362947016954
1708009841024422700,19.806422607421876,-0.0006108472589403391,0.0007635590736754239,-0.0009162708884105086
1708009841042978000,19.82497802734375,0,0.0007635590736754239,0.00030542362947016954
1708009841061533700,19.84353369140625,0,-0.0016798300202935934,0.0009162708884105086
1708009841080089300,19.86208935546875,0,0.001985253533348441,0.00030542362947016954
1708009841098644700,19.880644775390625,0,-0.0004581354442052543,0.00030542362947016954
1708009841117200400,19.899200439453125,-0.0006108472589403391,-0.0016798300202935934,-0.00030542362947016954
1708009841135756000,19.917756103515625,0,-0.0004581354442052543,-0.00030542362947016954
1708009841154311400,19.9363115234375,0,0.00015271181473508477,-0.00030542362947016954
1708009841172867000,19.9548671875,0,0.00015271181473508477,-0.00030542362947016954
1708009841191422500,19.97342236328125,0.0006108472589403391,-0.0004581354442052543,0.00030542362947016954
1708009841209978000,19.99197802734375,-0.0012216945178806782,-0.0022906772792339325,-0.00030542362947016954
1708009841228533800,20.01053369140625,0,-0.0004581354442052543,0.0009162708884105086
1708009841247089200,20.029089111328126,0,-0.0010689827613532543,0.00030542362947016954
1708009841265644800,20.047644775390626,0,0.00015271181473508477,0.00030542362947016954
1708009841284200400,20.066200439453127,0,-0.0010689827613532543,-0.00030542362947016954
1708009841302755800,20.084755859375,-0.0006108472589403391,0.00015271181473508477,0.00030542362947016954
1708009841321311500,20.1033115234375,-0.0006108472589403391,0.00015271181473508477,0.00030542362947016954
1708009841339867000,20.121866943359375,0,-0.0004581354442052543,-0.00030542362947016954
1708009841358422500,20.140422607421876,0,0.0007635590736754239,0.0009162708884105086
1708009841376978200,20.158978271484376,-0.0006108472589403391,-0.0004581354442052543,-0.0009162708884105086
1708009841395533800,20.177533935546876,0,0.0007635590736754239,0.00030542362947016954
1708009841414089200,20.196089111328124,0.0006108472589403391,-0.0004581354442052543,-0.00030542362947016954
1708009841432644900,20.214644775390624,-0.0012216945178806782,-0.0004581354442052543,0.00030542362947016954
1708009841451200500,20.233200439453125,0.0006108472589403391,-0.0004581354442052543,0.00030542362947016954
1708009841469756000,20.251755859375,0,0.00015271181473508477,0.00030542362947016954
1708009841488311600,20.2703115234375,0,0.001374406274408102,0.00030542362947016954
1708009841506867000,20.288866943359373,0,0.00015271181473508477,-0.00030542362947016954
1708009841525422600,20.307422607421874,-0.0006108472589403391,-0.0016798300202935934,0.00030542362947016954
1708009841543978200,20.325978271484374,-0.0006108472589403391,0.00015271181473508477,0.0009162708884105086
1708009841562533600,20.34453369140625,0,-0.0016798300202935934,0.0009162708884105086
1708009841581089300,20.36308935546875,-0.0012216945178806782,0.0007635590736754239,0.0009162708884105086
1708009841599645000,20.38164501953125,0.0006108472589403391,0.001374406274408102,-0.00030542362947016954
1708009841618200300,20.400200439453126,0.0012216945178806782,-0.0010689827613532543,-0.0009162708884105086
1708009841636756000,20.418755859375,-0.0006108472589403391,0.00015271181473508477,-0.00030542362947016954
1708009841655311600,20.4373115234375,-0.0006108472589403391,-0.0004581354442052543,-0.0009162708884105086
1708009841673867000,20.455866943359375,0,0.0007635590736754239,0.0009162708884105086
1708009841692422700,20.474422607421875,0,-0.0016798300202935934,0.00030542362947016954
1708009841710978300,20.492978271484375,-0.0006108472589403391,-0.0004581354442052543,0.0009162708884105086
1708009841729533700,20.51153369140625,-0.0006108472589403391,0.00015271181473508477,0.0009162708884105086
1708009841748089300,20.53008935546875,0,-0.0004581354442052543,-0.00030542362947016954
1708009841766645000,20.54864501953125,0,0.00015271181473508477,0.0009162708884105086
1708009841785200400,20.567200439453124,0,-0.0010689827613532543,0.0009162708884105086
1708009841803756000,20.585756103515624,-0.0006108472589403391,0.00015271181473508477,0.00030542362947016954
1708009841822311700,20.604311767578125,0.0006108472589403391,-0.0010689827613532543,-0.00030542362947016954
1708009841840867000,20.6228671875,0.0006108472589403391,-0.0004581354442052543,0.00030542362947016954
1708009841859422700,20.641422607421877,-0.0012216945178806782,-0.0010689827613532543,0.00030542362947016954
1708009841877978400,20.659978271484373,0.0006108472589403391,0.001374406274408102,-0.00030542362947016954
1708009841896533800,20.67853369140625,0,0.00015271181473508477,-0.00030542362947016954
1708009841915089400,20.69708935546875,0,-0.0004581354442052543,-0.00030542362947016954
1708009841933645000,20.71564501953125,-0.0006108472589403391,0.00015271181473508477,0.00030542362947016954
1708009841952200400,20.734200439453126,0,-0.0010689827613532543,0.0009162708884105086
1708009841970756000,20.752756103515626,0.0006108472589403391,-0.0010689827613532543,-0.00030542362947016954
1708009841989311700,20.771311767578126,0,0.0007635590736754239,0.0009162708884105086
1708009842007867100,20.7898671875,-0.0006108472589403391,-0.0004581354442052543,-0.00030542362947016954
1708009842026422800,20.8084228515625,0,0.00015271181473508477,0.00030542362947016954
1708009842044978400,20.826978515625,0,-0.0004581354442052543,0.0015271181473508477
1708009842063533800,20.845533935546875,-0.0006108472589403391,-0.0004581354442052543,-0.0009162708884105086
1708009842082089500,20.86408935546875,0,0.0007635590736754239,0.00030542362947016954
1708009842100645000,20.88264501953125,-0.0006108472589403391,0.00015271181473508477,-0.00030542362947016954
1708009842119200500,20.901200439453124,0,-0.0010689827613532543,-0.00030542362947016954
1708009842137756200,20.919756103515624,0,0.00015271181473508477,0.00030542362947016954
1708009842156311800,20.938311767578124,0.0006108472589403391,-0.0010689827613532543,0.0009162708884105086
1708009842174867200,20.9568671875,0,-0.0004581354442052543,-0.00030542362947016954
1708009842193422800,20.9754228515625,0,-0.0004581354442052543,-0.0009162708884105086
1708009842211978500,20.993978515625,0.0006108472589403391,-0.0004581354442052543,0.00030542362947016954
1708009842230534000,21.012533935546877,0,0.00015271181473508477,0.00030542362947016954
1708009842249089500,21.031089599609373,0,0.00015271181473508477,0.00030542362947016954
1708009842267645200,21.049645263671874,0,-0.0004581354442052543,-0.00030542362947016954
1708009842286200600,21.06820068359375,0,-0.0004581354442052543,0.00030542362947016954
1708009842304756200,21.086756103515626,0.0012216945178806782,0.00015271181473508477,-0.00030542362947016954
1708009842323311900,21.105311767578126,0,0.0007635590736754239,0.00030542362947016954
1708009842341867300,21.1238671875,0,-0.0010689827613532543,-0.0009162708884105086
1708009842360423000,21.1424228515625,0.0006108472589403391,-0.0010689827613532543,0.0015271181473508477
1708009842378978600,21.160978515625,0.00015271181473508477,-0.00030542362947016954,0.0007635590736754239
1708009842397534200,21.1795341796875,0.00015271181473508477,0.00030542362947016954,-0.0004581354442052543
1708009842416089600,21.198089599609375,0.00015271181473508477,0.00030542362947016954,-0.0004581354442052543
1708009842434645200,21.216645263671875,0.001374406274408102,0.00030542362947016954,-0.0004581354442052543
1708009842453201000,21.235200927734375,0.00015271181473508477,-0.0009162708884105086,0.0007635590736754239
1708009842471756300,21.25375634765625,0.00015271181473508477,0.00030542362947016954,-0.0004581354442052543
1708009842490312000,21.27231201171875,0.0007635590736754239,-0.0015271181473508477,-0.0004581354442052543
1708009842508867600,21.29086767578125,0.00015271181473508477,-0.0009162708884105086,0.00015271181473508477
1708009842527423000,21.309423095703124,-0.0004581354442052543,0.0009162708884105086,0.00015271181473508477
1708009842545978600,21.327978515625,-0.0004581354442052543,-0.00030542362947016954,0.0007635590736754239
1708009842564534300,21.3465341796875,0.00015271181473508477,0.00030542362947016954,-0.0004581354442052543
1708009842583089700,21.365089599609377,0.0007635590736754239,-0.0009162708884105086,0.00015271181473508477
1708009842601645300,21.383645263671873,0.00015271181473508477,-0.00030542362947016954,-0.0004581354442052543
1708009842620201000,21.402200927734373,0.001374406274408102,-0.0009162708884105086,-0.0004581354442052543
1708009842638756600,21.420756591796874,0.00015271181473508477,0.00030542362947016954,-0.0010689827613532543
1708009842657312000,21.43931201171875,0.00015271181473508477,-0.00030542362947016954,-0.0016798300202935934
1708009842675867600,21.45786767578125,0.00015271181473508477,-0.0009162708884105086,0.00015271181473508477
1708009842694423300,21.47642333984375,-0.0010689827613532543,0.0009162708884105086,0.00015271181473508477
1708009842712978700,21.494978759765626,-0.0004581354442052543,0.0009162708884105086,-0.0004581354442052543
1708009842731534300,21.513534423828126,0.00015271181473508477,0.00030542362947016954,-0.0004581354442052543
1708009842750090000,21.532090087890627,0.0007635590736754239,-0.00030542362947016954,-0.0004581354442052543
1708009842768645400,21.550645263671875,-0.0004581354442052543,0.00030542362947016954,0.00015271181473508477
1708009842787201000,21.569200927734375,-0.0004581354442052543,-0.00030542362947016954,0.0007635590736754239
1708009842805756700,21.587756591796875,-0.0004581354442052543,-0.00030542362947016954,0.0007635590736754239
1708009842824312000,21.60631201171875,0.00015271181473508477,0.00030542362947016954,-0.0004581354442052543
1708009842842867700,21.62486767578125,0.0007635590736754239,-0.00030542362947016954,0.00015271181473508477
1708009842861423400,21.64342333984375,0.00015271181473508477,-0.00030542362947016954,-0.0010689827613532543
1708009842879978800,21.661978759765624,0.00015271181473508477,-0.0009162708884105086,0.0007635590736754239
1708009842898534400,21.680534423828124,0.00015271181473508477,-0.00030542362947016954,-0.0004581354442052543
1708009842917090000,21.699090087890625,0.00015271181473508477,-0.0009162708884105086,-0.0004581354442052543
1708009842935645700,21.717645751953125,-0.0004581354442052543,0.0015271181473508477,-0.0004581354442052543
1708009842954201000,21.736201171875,0.00015271181473508477,-0.00030542362947016954,0.00015271181473508477
1708009842972756700,21.7547568359375,-0.0004581354442052543,0.0009162708884105086,-0.0004581354442052543
1708009842991312400,21.7733125,0.00015271181473508477,-0.0009162708884105086,0.00015271181473508477
1708009843009867800,21.79186767578125,-0.0004581354442052543,-0.0009162708884105086,-0.0004581354442052543
1708009843028423400,21.81042333984375,0.00015271181473508477,-0.00030542362947016954,-0.0004581354442052543
1708009843046979000,21.82897900390625,0.0007635590736754239,-0.0009162708884105086,-0.0004581354442052543
1708009843065534700,21.84753466796875,-0.0010689827613532543,0.00030542362947016954,0.00015271181473508477
1708009843084090000,21.866090087890626,0.0007635590736754239,0.00030542362947016954,-0.0010689827613532543
1708009843102645800,21.884645751953126,0.00015271181473508477,0.00030542362947016954,-0.0004581354442052543
1708009843121201400,21.903201416015627,0.00015271181473508477,0.00030542362947016954,-0.0004581354442052543
1708009843139757000,21.921757080078127,-0.0004581354442052543,-0.0015271181473508477,0.0007635590736754239
1708009843158312400,21.9403125,-0.0004581354442052543,0.0009162708884105086,-0.0004581354442052543
1708009843176868000,21.9588681640625,0.00015271181473508477,0.0009162708884105086,-0.0010689827613532543
1708009843195423700,21.977423828125,0.001374406274408102,0.0009162708884105086,-0.0004581354442052543
1708009843213979100,21.995979248046876,0.00015271181473508477,0.00030542362947016954,-0.0004581354442052543
1708009843232534800,22.01453466796875,0.00015271181473508477,0.00030542362947016954,-0.0010689827613532543
1708009843251090400,22.03309033203125,0.0007635590736754239,-0.0009162708884105086,0.00015271181473508477
1708009843269646000,22.05164599609375,-0.0004581354442052543,-0.00030542362947016954,-0.0010689827613532543
1708009843288201500,22.070201416015625,0.001374406274408102,-0.00030542362947016954,0.00015271181473508477
1708009843306757000,22.088757080078125,-0.0006108472589403391,-0.00030542362947016954,-0.0010689827613532543
1708009843325312800,22.107312744140625,-0.0010689827613532543,0.0009162708884105086,-0.0004581354442052543
1708009843343868200,22.1258681640625,0.0007635590736754239,0.00030542362947016954,0.00015271181473508477
1708009843362423800,22.144423828125,0.0007635590736754239,0.00030542362947016954,-0.0004581354442052543
1708009843380979500,22.1629794921875,0.00015271181473508477,0.0015271181473508477,-0.0004581354442052543
