time,seconds_elapsed,z,y,x
1708009821490016300,0.272016357421875,-55.23749923706055,-32.60000228881836,16.625
1708009821499832000,0.28183203125,-54.38750076293945,-32.212501525878906,16.6875
1708009821509646000,0.29164599609375,-54.22500228881836,-32.212501525878906,16.6875
1708009821519459300,0.301459228515625,-54.5625,-32.32500076293945,16.837499618530273
1708009821529277200,0.311277099609375,-53.5625,-32.60000228881836,16.649999618530273
1708009821539091200,0.32109130859375,-53.775001525878906,-32.8125,17.075000762939453
1708009821548905700,0.33090576171875,-54.57500076293945,-32.29999923706055,16.98750114440918
1708009821558724400,0.340724365234375,-54.712501525878906,-32.337501525878906,16.5
1708009821568543500,0.35054345703125,-54.72500228881836,-32.47500228881836,16.649999618530273
1708009821578359000,0.360359130859375,-54.60000228881836,-33.11249923706055,16.725000381469727
1708009821588171500,0.370171630859375,-54.23749923706055,-33.275001525878906,16.23750114440918
1708009821597989400,0.3799892578125,-54.22500228881836,-32.625,16.3125
1708009821607807200,0.38980712890625,-54.5625,-32.60000228881836,16.625
1708009821617620500,0.399620361328125,-54.72500228881836,-32.60000228881836,16.475000381469727
1708009821627437000,0.40943701171875,-54.875,-32.212501525878906,16.6875
1708009821637253000,0.419253173828125,-54.38750076293945,-32.337501525878906,16.662500381469727
1708009821647064800,0.42906494140625,-54.41250228881836,-32.45000076293945,16.8125
1708009821656879600,0.438879638671875,-54.57500076293945,-32.85000228881836,16.762500762939453
1708009821666691300,0.44869140625,-54.72500228881836,-33.150001525878906,16.25
1708009821676504000,0.458504150390625,-54.5625,-32.73749923706055,16.462499618530273
1708009821686314500,0.468314453125,-54.53750228881836,-32.22500228881836,16.512500762939453
1708009821696129500,0.478129638671875,-54.375,-31.962499618530273,16.55000114440918
1708009821705946400,0.4879462890625,-54.23749923706055,-32.150001525878906,17.149999618530273
1708009821715763700,0.497763671875,-54.9375,-32.36249923706055,17.774999618530273
1708009821725584600,0.507584716796875,-54.95000076293945,-32.775001525878906,17.5625
1708009821735400200,0.517400146484375,-54.42499923706055,-33.11249923706055,16.725000381469727
1708009821745216000,0.527216064453125,-54.5625,-32.86249923706055,16.4375
1708009821755030500,0.537030517578125,-54.5625,-32.48749923706055,16.5
1708009821764844300,0.54684423828125,-54.53750228881836,-32.375,16.200000762939453
1708009821774659000,0.5566591796875,-54.22500228881836,-32.48749923706055,16.325000762939453
1708009821784474400,0.566474365234375,-54.22500228881836,-32.75,16.3125
1708009821794290000,0.5762900390625,-54.5625,-32.1875,16.837499618530273
1708009821804102400,0.586102294921875,-54.75,-32,17.48750114440918
1708009821813913900,0.595913818359375,-54.75,-32.4375,16.962499618530273
1708009821823731200,0.605731201171875,-54.04999923706055,-32.92499923706055,15.975000381469727
1708009821833544200,0.615544189453125,-54.375,-32.63750076293945,16.162500381469727
1708009821843356400,0.6253564453125,-55.275001525878906,-32.525001525878906,17.4375
1708009821853175300,0.63517529296875,-54.91250228881836,-32.962501525878906,16.912500381469727
1708009821862994700,0.64499462890625,-54.57500076293945,-32.97500228881836,16.73750114440918
1708009821872810500,0.654810546875,-54.75,-32.97500228881836,16.73750114440918
1708009821882628000,0.664628173828125,-54.72500228881836,-32.47500228881836,16.5
1708009821892447500,0.674447509765625,-54.712501525878906,-32.07500076293945,16.700000762939453
1708009821902269400,0.68426953125,-54.900001525878906,-32.32500076293945,16.8125
1708009821912092000,0.694091796875,-54.900001525878906,-32.29999923706055,16.98750114440918
1708009821921911800,0.703911865234375,-54.5625,-32.47500228881836,16.649999618530273
1708009821931732700,0.713732666015625,-54.26250076293945,-33.087501525878906,16.887500762939453
1708009821941552600,0.723552734375,-54.087501525878906,-32.8125,17.075000762939453
1708009821951373300,0.733373291015625,-54.900001525878906,-32.86249923706055,16.4375
1708009821961191400,0.74319140625,-55.0625,-33.275001525878906,16.23750114440918
1708009821971007700,0.7530078125,-54.57500076293945,-32.86249923706055,16.61250114440918
1708009821980821800,0.76282177734375,-54.72500228881836,-32.45000076293945,16.8125
1708009821990643000,0.772642822265625,-54.23749923706055,-32.60000228881836,16.625
1708009822000460300,0.782460205078125,-54.07500076293945,-32.32500076293945,16.837499618530273
1708009822010281000,0.792281005859375,-54.72500228881836,-32.03750228881836,17.024999618530273
1708009822020102100,0.80210205078125,-54.9375,-32.25,17.625
1708009822029927000,0.811927001953125,-54.45000076293945,-32.63750076293945,17.587499618530273
1708009822039750700,0.821750732421875,-54.5625,-32.47500228881836,16.649999618530273
1708009822049571800,0.83157177734375,-53.88750076293945,-32.36249923706055,16.512500762939453
1708009822059393500,0.8413935546875,-54.04999923706055,-32.36249923706055,16.512500762939453
1708009822069213200,0.851213134765625,-55.04999923706055,-32.07500076293945,16.700000762939453
1708009822079030300,0.8610302734375,-54.57500076293945,-32.13750076293945,17.475000381469727
1708009822088847400,0.870847412109375,-54.087501525878906,-32.82500076293945,16.92500114440918
1708009822098662700,0.88066259765625,-54.26250076293945,-32.962501525878906,16.912500381469727
1708009822108478500,0.890478515625,-53.775001525878906,-32.9375,17.0625
1708009822118292000,0.9002919921875,-54.26250076293945,-32.54999923706055,17.11250114440918
1708009822128108000,0.91010791015625,-54.72500228881836,-32.60000228881836,16.625
1708009822137922800,0.9199228515625,-54.20000076293945,-32.66250228881836,15.987500190734863
1708009822147743200,0.9297431640625,-53.67499923706055,-32.29999923706055,15.725000381469727
1708009822157561900,0.939561767578125,-54.35000228881836,-32.29999923706055,15.725000381469727
1708009822167376600,0.949376708984375,-54.900001525878906,-32.60000228881836,16.625
1708009822177193000,0.95919287109375,-54.38750076293945,-32.60000228881836,16.625
1708009822187010300,0.96901025390625,-54.20000076293945,-32.400001525878906,16.024999618530273
1708009822196825300,0.978825439453125,-54.07500076293945,-33,16.42500114440918
1708009822206641400,0.988641357421875,-54.07500076293945,-32.60000228881836,16.625
1708009822216455200,0.998455078125,-54.6875,-31.837499618530273,16.399999618530273
1708009822226272500,1.0082724609375,-54.712501525878906,-32.22500228881836,16.512500762939453
1708009822236086500,1.01808642578125,-54.22500228881836,-32.75,16.3125
1708009822245907700,1.02790771484375,-54.41250228881836,-33,16.42500114440918
1708009822255725800,1.037725830078125,-54.72500228881836,-32.86249923706055,16.4375
1708009822265539600,1.04753955078125,-54.53750228881836,-32.10000228881836,16.537500381469727
1708009822275355600,1.057355712890625,-55.0625,-32.17499923706055,17
1708009822285171000,1.0671708984375,-54.75,-32.82500076293945,16.92500114440918
1708009822294986000,1.076986083984375,-54.41250228881836,-32.587501525878906,16.80000114440918
1708009822304804900,1.086804931640625,-54.5625,-32.60000228881836,16.625
1708009822314620700,1.09662060546875,-54.91250228881836,-32.86249923706055,16.587499618530273
1708009822324438000,1.10643798828125,-54.41250228881836,-32.5625,16.950000762939453
1708009822334257700,1.116257568359375,-54.72500228881836,-32.025001525878906,17.17500114440918
1708009822344078000,1.126078125,-55.23749923706055,-32.712501525878906,16.774999618530273
1708009822353900000,1.135900146484375,-54.41250228881836,-33,16.587499618530273
1708009822363722000,1.145721923828125,-54.41250228881836,-32.29999923706055,16.98750114440918
1708009822373538300,1.155538330078125,-54.57500076293945,-32.85000228881836,16.762500762939453
1708009822383354400,1.165354248046875,-55.0625,-33.16250228881836,16.087499618530273
1708009822393169000,1.1751689453125,-55.23749923706055,-33.150001525878906,16.25
1708009822402983700,1.184983642578125,-54.57500076293945,-32.85000228881836,16.762500762939453
1708009822412800300,1.19480029296875,-53.712501525878906,-32.25,16.36250114440918
1708009822422616800,1.204616943359375,-54.67499923706055,-31.875,16.087499618530273
1708009822432428800,1.2144287109375,-55.025001525878906,-32.25,16.200000762939453
1708009822442242300,1.2242421875,-54.38750076293945,-33.03750228881836,16.100000381469727
1708009822452052500,1.234052490234375,-54.72500228881836,-33.16250228881836,16.087499618530273
1708009822461865200,1.243865234375,-54.900001525878906,-32.60000228881836,16.625
1708009822471680000,1.253679931640625,-54.900001525878906,-32.1875,16.837499618530273
1708009822481493500,1.263493408203125,-54.20000076293945,-32.36249923706055,16.350000381469727
1708009822491307300,1.273307373046875,-54.07500076293945,-32.47500228881836,16.649999618530273
1708009822501117400,1.283117431640625,-54.900001525878906,-32.45000076293945,16.8125
1708009822510936300,1.292936279296875,-55.23749923706055,-32.32500076293945,16.8125
1708009822520746800,1.302746826171875,-54.60000228881836,-32.525001525878906,17.262500762939453
1708009822530565400,1.3125654296875,-53.775001525878906,-32.25,17.625
1708009822540383000,1.322383056640625,-54.41250228881836,-32.4375,16.962499618530273
1708009822550201900,1.332201904296875,-54.41250228881836,-32.587501525878906,16.80000114440918
1708009822560021800,1.342021728515625,-53.900001525878906,-32.625,16.475000381469727
1708009822569850600,1.3518505859375,-54.57500076293945,-33,16.587499618530273
1708009822579658200,1.361658203125,-54.75,-33.11249923706055,16.725000381469727
1708009822589478100,1.37147802734375,-54.38750076293945,-32.48749923706055,16.5
1708009822599296300,1.381296142578125,-54.38750076293945,-32.48749923706055,16.5
1708009822609117700,1.39111767578125,-54.23749923706055,-32.85000228881836,16.762500762939453
1708009822618932000,1.400931884765625,-53.775001525878906,-32.8125,17.075000762939453
1708009822628746500,1.41074658203125,-54.57500076293945,-33,16.587499618530273
1708009822638560300,1.420560302734375,-54.91250228881836,-32.5625,16.950000762939453
1708009822648375800,1.430375732421875,-54.57500076293945,-32.41250228881836,17.137500762939453
1708009822658190000,1.440190185546875,-54.72500228881836,-32.1875,16.837499618530273
1708009822668001800,1.450001708984375,-54.41250228881836,-32.28750228881836,17.149999618530273
1708009822677815000,1.45981494140625,-53.88750076293945,-32.36249923706055,16.512500762939453
1708009822687630300,1.46963037109375,-53.88750076293945,-32.337501525878906,16.662500381469727
1708009822697443800,1.47944384765625,-54.75,-32.54999923706055,17.11250114440918
1708009822707255600,1.489255615234375,-54.38750076293945,-32.625,16.475000381469727
1708009822717070800,1.49907080078125,-54.53750228881836,-32.66250228881836,15.987500190734863
1708009822726882000,1.508882080078125,-54.712501525878906,-32.525001525878906,16.012500762939453
1708009822736695800,1.51869580078125,-54.53750228881836,-32.36249923706055,16.350000381469727
1708009822746509800,1.528509765625,-54.712501525878906,-32.625,16.3125
1708009822756327000,1.538326904296875,-55.212501525878906,-32.92499923706055,15.949999809265137
1708009822766133800,1.5481337890625,-55.20000076293945,-32.66250228881836,15.987500190734863
1708009822775947000,1.557947021484375,-55.0625,-32.60000228881836,16.475000381469727
1708009822785761300,1.56776123046875,-54.72500228881836,-32.86249923706055,16.4375
1708009822795577900,1.577577880859375,-54.712501525878906,-32.66250228881836,15.987500190734863
1708009822805394400,1.58739453125,-55.04999923706055,-32.51250076293945,16.17500114440918
1708009822815212500,1.597212646484375,-55.400001525878906,-32.73749923706055,16.462499618530273
1708009822825029600,1.607029541015625,-54.712501525878906,-32.63750076293945,16.162500381469727
1708009822834847500,1.616847412109375,-54.6875,-32.26250076293945,16.05000114440918
1708009822844667400,1.62666748046875,-54.875,-32.51250076293945,16.17500114440918
1708009822854481200,1.636481201171875,-54.875,-32.375,16.17500114440918
1708009822864298000,1.646298095703125,-54.875,-32.625,16.3125
1708009822874114300,1.6561142578125,-54.712501525878906,-32.63750076293945,16.162500381469727
1708009822883929600,1.6659296875,-55.025001525878906,-32.26250076293945,16.05000114440918
1708009822893745400,1.675745361328125,-55.212501525878906,-32.212501525878906,16.512500762939453
1708009822903561200,1.685561279296875,-54.91250228881836,-32.712501525878906,16.774999618530273
1708009822913379000,1.695379150390625,-54.38750076293945,-32.900001525878906,16.125
1708009822923192000,1.705192138671875,-54.375,-32.51250076293945,16.17500114440918
1708009822933007600,1.715007568359375,-54.5625,-32.60000228881836,16.625
1708009822942820900,1.72482080078125,-54.42499923706055,-32.82500076293945,16.92500114440918
1708009822952633300,1.73463330078125,-55.0625,-32.60000228881836,16.475000381469727
1708009822962449700,1.74444970703125,-54.900001525878906,-32.587501525878906,16.80000114440918
1708009822972264400,1.754264404296875,-54.38750076293945,-32.625,16.3125
1708009822982081800,1.764081787109375,-54.837501525878906,-32.712501525878906,15.350000381469727
1708009822991897900,1.77389794921875,-55.025001525878906,-32.8125,15.65000057220459
1708009823001713400,1.78371337890625,-54.875,-32.625,16.3125
1708009823011527000,1.79352685546875,-55.38750076293945,-32.36249923706055,16.350000381469727
1708009823021341400,1.803341552734375,-55.212501525878906,-32.36249923706055,16.350000381469727
1708009823031155700,1.81315576171875,-54.72500228881836,-32.212501525878906,16.6875
1708009823040970800,1.822970703125,-55.212501525878906,-32.337501525878906,16.662500381469727
1708009823050784000,1.832783935546875,-55.01250076293945,-32,16.0625
1708009823060602000,1.84260205078125,-54.16250228881836,-32.03750228881836,15.762499809265137
1708009823070419700,1.852419677734375,-54.712501525878906,-32.9375,15.800000190734863
1708009823080236800,1.86223681640625,-54.900001525878906,-33.150001525878906,16.25
1708009823090052900,1.872052978515625,-54.375,-32.63750076293945,16.162500381469727
1708009823099870700,1.88187060546875,-54.875,-32.48749923706055,16.325000762939453
1708009823109684000,1.89168408203125,-55.0625,-32.60000228881836,16.625
1708009823119498000,1.901498046875,-54.22500228881836,-32.47500228881836,16.649999618530273
1708009823129313800,1.911313720703125,-54.72500228881836,-32.1875,16.837499618530273
1708009823139126300,1.921126220703125,-55.212501525878906,-32.212501525878906,16.512500762939453
1708009823148937700,1.930937744140625,-54.53750228881836,-32.48749923706055,16.325000762939453
1708009823158753800,1.94075390625,-54.875,-32.22500228881836,16.36250114440918
1708009823168569300,1.9505693359375,-54.72500228881836,-32.60000228881836,16.475000381469727
1708009823178382800,1.9603828125,-55.04999923706055,-32.92499923706055,15.949999809265137
1708009823188201000,1.970200927734375,-55.20000076293945,-32.400001525878906,16.024999618530273
1708009823198014700,1.9800146484375,-54.712501525878906,-32.63750076293945,16.162500381469727
1708009823207833600,1.98983349609375,-54.712501525878906,-32.8125,15.824999809265137
1708009823217654300,1.999654296875,-54.875,-32.78750228881836,15.975000381469727
1708009823227474400,2.009474365234375,-54.712501525878906,-32.63750076293945,16.162500381469727
1708009823237288000,2.019287841796875,-55.04999923706055,-32.66250228881836,15.987500190734863
1708009823247100200,2.02910009765625,-55.38750076293945,-32.88750076293945,16.274999618530273
1708009823256916200,2.038916259765625,-55.20000076293945,-32.66250228881836,15.987500190734863
1708009823266734300,2.048734375,-54.86249923706055,-32.67499923706055,15.83750057220459
1708009823276554500,2.058554443359375,-54.712501525878906,-32.63750076293945,16.162500381469727
1708009823286371300,2.068371337890625,-54.53750228881836,-32.48749923706055,16.325000762939453
1708009823296184600,2.0781845703125,-54.38750076293945,-32.73749923706055,16.462499618530273
1708009823306004700,2.088004638671875,-54.75,-32.82500076293945,16.92500114440918
1708009823315822800,2.09782275390625,-54.75,-32.712501525878906,16.774999618530273
1708009823325635000,2.107635009765625,-54.07500076293945,-32.60000228881836,16.625
1708009823335451600,2.11745166015625,-54.41250228881836,-32.712501525878906,16.774999618530273
1708009823345272000,2.12727197265625,-54.41250228881836,-32.5625,16.950000762939453
1708009823355090200,2.137090087890625,-54.23749923706055,-32.5625,16.950000762939453
1708009823364907000,2.146906982421875,-53.75,-32.712501525878906,16.774999618530273
1708009823374725400,2.156725341796875,-53.41250228881836,-32.85000228881836,16.762500762939453
1708009823384545500,2.166545654296875,-54.23749923706055,-32.73749923706055,16.625
1708009823394364000,2.176364013671875,-54.57500076293945,-32.712501525878906,16.774999618530273
1708009823404181500,2.186181396484375,-54.23749923706055,-32.5625,16.950000762939453
1708009823413998300,2.195998291015625,-53.712501525878906,-32.625,16.3125
1708009823423818000,2.20581787109375,-54.04999923706055,-32.63750076293945,16.162500381469727
1708009823433633300,2.21563330078125,-54.53750228881836,-32.525001525878906,16.012500762939453
1708009823443445500,2.225445556640625,-54.5625,-32.625,16.3125
1708009823453258800,2.2352587890625,-54.75,-32.85000228881836,16.762500762939453
1708009823463073800,2.24507373046875,-54.75,-32.97500228881836,16.73750114440918
1708009823472887800,2.2548876953125,-54.07500076293945,-32.45000076293945,16.8125
1708009823482694400,2.2646943359375,-54.53750228881836,-32.36249923706055,16.350000381469727
1708009823492502300,2.274502197265625,-54.72500228881836,-32.75,16.287500381469727
1708009823502316000,2.28431591796875,-54.087501525878906,-32.82500076293945,16.92500114440918
1708009823512127500,2.29412744140625,-54.41250228881836,-32.587501525878906,16.80000114440918
1708009823521940500,2.3039404296875,-54.712501525878906,-32.625,16.3125
1708009823531753200,2.313753173828125,-54.5625,-32.45000076293945,16.8125
1708009823541564400,2.323564453125,-54.60000228881836,-32.375,17.600000381469727
1708009823551377000,2.333376953125,-54.087501525878906,-32.54999923706055,17.262500762939453
1708009823561186800,2.343186767578125,-53.73749923706055,-32.75,16.3125
1708009823571003100,2.353003173828125,-54.375,-32.66250228881836,15.987500190734863
1708009823580817400,2.3628173828125,-54.53750228881836,-32.51250076293945,16.17500114440918
1708009823590634800,2.372634765625,-54.22500228881836,-32.63750076293945,16.162500381469727
1708009823600449000,2.382448974609375,-54.5625,-32.625,16.3125
1708009823610261800,2.39226171875,-54.900001525878906,-32.73749923706055,16.462499618530273
1708009823620075300,2.4020751953125,-54.38750076293945,-32.625,16.475000381469727
1708009823629890000,2.41189013671875,-54.38750076293945,-32.48749923706055,16.5
1708009823639707000,2.421706787109375,-54.900001525878906,-32.60000228881836,16.625
1708009823649525500,2.431525390625,-54.875,-32.337501525878906,16.5
1708009823659334000,2.441333984375,-54.712501525878906,-32.375,16.17500114440918
1708009823669149000,2.45114892578125,-55.04999923706055,-32.625,16.3125
1708009823678966000,2.460966064453125,-54.875,-32.375,16.17500114440918
1708009823688780300,2.4707802734375,-54.5625,-32.337501525878906,16.662500381469727
1708009823698592800,2.4805927734375,-54.75,-32.70000076293945,16.92500114440918
1708009823708407600,2.490407470703125,-54.712501525878906,-32.625,16.3125
1708009823718217500,2.500217529296875,-54.900001525878906,-32.47500228881836,16.649999618530273
1708009823728030700,2.51003076171875,-55.400001525878906,-32.712501525878906,16.774999618530273
1708009823737848600,2.5198486328125,-54.712501525878906,-32.63750076293945,16.162500381469727
1708009823747657000,2.529656982421875,-54.712501525878906,-32.625,16.3125
1708009823757473500,2.5394736328125,-54.42499923706055,-32.8125,17.075000762939453
1708009823767286800,2.549286865234375,-54.57500076293945,-32.29999923706055,16.98750114440918
1708009823777099800,2.559099853515625,-54.900001525878906,-32.337501525878906,16.662500381469727
1708009823786910000,2.568909912109375,-54.26250076293945,-32.962501525878906,16.912500381469727
1708009823796725000,2.57872509765625,-54.26250076293945,-33.11249923706055,16.725000381469727
1708009823806544400,2.58854443359375,-55.23749923706055,-32.73749923706055,16.462499618530273
1708009823816360700,2.598360595703125,-55.53750228881836,-32.78750228881836,15.975000381469727
1708009823826174200,2.60817431640625,-54.53750228881836,-32.8125,15.824999809265137
1708009823835988500,2.617988525390625,-54.375,-32.400001525878906,16.024999618530273
1708009823845805300,2.627805419921875,-54.900001525878906,-32.47500228881836,16.649999618530273
1708009823855619800,2.637619873046875,-54.60000228881836,-33.087501525878906,16.887500762939453
1708009823865439500,2.647439453125,-54.5625,-32.60000228881836,16.625
1708009823875259400,2.65725927734375,-54.53750228881836,-32.25,16.200000762939453
1708009823885077800,2.667077880859375,-54.03750228881836,-32.66250228881836,15.987500190734863
1708009823894893800,2.676893798828125,-54.03750228881836,-32.66250228881836,15.987500190734863
1708009823904712000,2.6867119140625,-54.22500228881836,-32.900001525878906,16.125
1708009823914526200,2.696526123046875,-54.04999923706055,-32.900001525878906,16.125
1708009823924341200,2.70634130859375,-54.375,-32.22500228881836,16.36250114440918
1708009823934155000,2.716155029296875,-54.1875,-32,16.087499618530273
1708009823943969300,2.72596923828125,-54.525001525878906,-32.11249923706055,16.212499618530273
1708009823953781000,2.735781005859375,-55.38750076293945,-32.212501525878906,16.512500762939453
1708009823963594800,2.7455947265625,-54.72500228881836,-32.60000228881836,16.475000381469727
1708009823973407200,2.7554072265625,-54.22500228881836,-32.48749923706055,16.5
1708009823983224000,2.76522412109375,-54.900001525878906,-32.32500076293945,16.8125
1708009823993036800,2.775036865234375,-55.212501525878906,-32.60000228881836,16.475000381469727
1708009824002853000,2.78485302734375,-54.38750076293945,-33.04999923706055,15.949999809265137
1708009824012665000,2.7946650390625,-54.5625,-32.73749923706055,16.462499618530273
1708009824022479600,2.804479736328125,-54.5625,-32.32500076293945,16.837499618530273
1708009824032290800,2.814290771484375,-53.88750076293945,-31.8125,16.73750114440918
1708009824042103000,2.82410302734375,-54.04999923706055,-32.0625,16.850000381469727
1708009824051918000,2.83391796875,-54.900001525878906,-32.32500076293945,16.8125
1708009824061734100,2.843734130859375,-55.025001525878906,-31.962499618530273,16.387500762939453
1708009824071548400,2.85354833984375,-55.400001525878906,-32.17499923706055,17
1708009824081359000,2.863359130859375,-55.087501525878906,-32.13750076293945,17.325000762939453
1708009824091174100,2.873174072265625,-54.38750076293945,-32.07500076293945,16.700000762939453
1708009824100986600,2.882986572265625,-54.72500228881836,-32.60000228881836,16.625
1708009824110799000,2.892799072265625,-54.900001525878906,-32.86249923706055,16.4375
1708009824120612400,2.9026123046875,-54.53750228881836,-32.51250076293945,16.17500114440918
1708009824130424600,2.912424560546875,-54.72500228881836,-32.337501525878906,16.662500381469727
1708009824140235500,2.922235595703125,-54.38750076293945,-32.07500076293945,16.700000762939453
1708009824150044700,2.932044677734375,-54.1875,-31.98750114440918,16.23750114440918
1708009824159855600,2.941855712890625,-54.86249923706055,-31.98750114440918,16.23750114440918
1708009824169668000,2.951668212890625,-55.23749923706055,-32.29999923706055,16.98750114440918
1708009824179482600,2.961482666015625,-55.087501525878906,-32.41250228881836,17.137500762939453
1708009824189298000,2.9712978515625,-55.087501525878906,-32.28750228881836,17.137500762939453
1708009824199115500,2.981115478515625,-55.38750076293945,-32.07500076293945,16.700000762939453
1708009824208931600,2.990931640625,-54.53750228881836,-31.8125,16.725000381469727
1708009824218750200,3.000750244140625,-54.72500228881836,-31.887500762939453,17.36250114440918
1708009824228568000,3.010568115234375,-54.91250228881836,-32.54999923706055,17.11250114440918
1708009824238384400,3.02038427734375,-54.41250228881836,-32.587501525878906,16.80000114440918
1708009824248198700,3.03019873046875,-54.5625,-32.32500076293945,16.837499618530273
1708009824258012700,3.0400126953125,-54.75,-32.41250228881836,17.137500762939453
1708009824267827000,3.049826904296875,-54.60000228881836,-32.525001525878906,17.262500762939453
1708009824277643000,3.05964306640625,-54.75,-32.54999923706055,17.11250114440918
1708009824287462400,3.06946240234375,-54.41250228881836,-32.45000076293945,16.8125
1708009824297280000,3.079280029296875,-54.5625,-32.47500228881836,16.649999618530273
1708009824307097300,3.089097412109375,-54.75,-32.54999923706055,17.11250114440918
1708009824316909600,3.09890966796875,-54.60000228881836,-32.525001525878906,17.262500762939453
1708009824326723300,3.108723388671875,-54.72500228881836,-32.47500228881836,16.5
1708009824336534300,3.1185341796875,-54.5625,-32.900001525878906,16.125
1708009824346355000,3.12835498046875,-54.07500076293945,-32.75,16.462499618530273
1708009824356172500,3.138172607421875,-54.07500076293945,-32.32500076293945,16.837499618530273
1708009824365988900,3.14798876953125,-54.41250228881836,-32.712501525878906,16.774999618530273
1708009824375805200,3.15780517578125,-55.23749923706055,-32.587501525878906,16.80000114440918
1708009824385623000,3.167623046875,-55.20000076293945,-32.22500228881836,16.36250114440918
1708009824395439600,3.177439697265625,-54.875,-32.212501525878906,16.6875
1708009824405249500,3.18724951171875,-54.57500076293945,-32.29999923706055,16.98750114440918
1708009824415063600,3.1970634765625,-53.525001525878906,-32.25,16.212499618530273
1708009824424881000,3.206880859375,-54.375,-32.22500228881836,16.36250114440918
1708009824434699300,3.21669921875,-55.25,-32.54999923706055,17.11250114440918
1708009824444514600,3.2265146484375,-54.5625,-32.32500076293945,16.837499618530273
1708009824454328000,3.236328125,-54.875,-32.375,16.17500114440918
1708009824464144100,3.24614404296875,-55.0625,-32.86249923706055,16.4375
1708009824473958000,3.2559580078125,-53.73749923706055,-32.60000228881836,16.625
1708009824483771600,3.265771728515625,-54.20000076293945,-32.22500228881836,16.36250114440918
1708009824493585200,3.275585205078125,-54.5625,-32.45000076293945,16.8125
1708009824503397600,3.285397705078125,-54.41250228881836,-32.587501525878906,16.80000114440918
1708009824513209000,3.295208984375,-54.38750076293945,-32.625,16.475000381469727
1708009824523025700,3.305025634765625,-54.5625,-32.48749923706055,16.5
1708009824532841000,3.314841064453125,-54.04999923706055,-32.36249923706055,16.512500762939453
1708009824542659800,3.324659912109375,-53.88750076293945,-32.36249923706055,16.512500762939453
1708009824552470800,3.334470703125,-54.07500076293945,-32.28750228881836,17.149999618530273
1708009824562285800,3.344285888671875,-54.38750076293945,-32.32500076293945,16.837499618530273
1708009824572095500,3.354095458984375,-55.36249923706055,-32.10000228881836,16.387500762939453
1708009824581907500,3.363907470703125,-55.04999923706055,-32.47500228881836,16.5
1708009824591721500,3.373721435546875,-54.42499923706055,-32.54999923706055,17.11250114440918
1708009824601534200,3.3835341796875,-55.0625,-31.912500381469727,17.037500381469727
1708009824611349500,3.393349609375,-55.23749923706055,-32.17499923706055,17
1708009824621165600,3.40316552734375,-54.22500228881836,-32.47500228881836,16.649999618530273
1708009824630982400,3.412982421875,-54.53750228881836,-32.22500228881836,16.512500762939453
1708009824640800500,3.422800537109375,-55.23749923706055,-32.29999923706055,16.98750114440918
1708009824650611500,3.432611572265625,-54.38750076293945,-32.337501525878906,16.662500381469727
1708009824660425000,3.442425048828125,-54.72500228881836,-32.29999923706055,16.98750114440918
1708009824670240500,3.452240478515625,-54.42499923706055,-32.54999923706055,17.262500762939453
1708009824680055300,3.46205517578125,-53.73749923706055,-32.60000228881836,16.625
1708009824689869800,3.471869873046875,-54.875,-32.337501525878906,16.5
1708009824699681300,3.481681396484375,-54.91250228881836,-32.67499923706055,17.100000381469727
1708009824709496600,3.49149658203125,-54.23749923706055,-32.86249923706055,16.61250114440918
1708009824719315000,3.50131494140625,-54.38750076293945,-32.625,16.3125
1708009824729134800,3.511134765625,-54.42499923706055,-32.54999923706055,17.11250114440918
1708009824738954000,3.5209541015625,-54.75,-32.4375,16.962499618530273
1708009824748770600,3.5307705078125,-55.0625,-32.587501525878906,16.80000114440918
1708009824758587600,3.540587646484375,-54.72500228881836,-32.45000076293945,16.8125
1708009824768405800,3.55040576171875,-54.375,-32.10000228881836,16.387500762939453
1708009824778223000,3.56022314453125,-54.20000076293945,-32.10000228881836,16.387500762939453
1708009824788039000,3.570038818359375,-53.712501525878906,-32.10000228881836,16.537500381469727
1708009824797856300,3.579856201171875,-54.22500228881836,-32.212501525878906,16.6875
1708009824807676000,3.589676025390625,-54.72500228881836,-32.17499923706055,17
1708009824817494500,3.59949462890625,-54.53750228881836,-31.950000762939453,16.725000381469727
1708009824827314700,3.609314697265625,-54.375,-32.22500228881836,16.512500762939453
1708009824837136000,3.619135986328125,-54.38750076293945,-32.47500228881836,16.649999618530273
1708009824846952200,3.6289521484375,-54.23749923706055,-32.5625,16.950000762939453
1708009824856768000,3.63876806640625,-54.23749923706055,-32.5625,16.950000762939453
1708009824866579200,3.6485791015625,-54.23749923706055,-32.5625,16.950000762939453
1708009824876390700,3.658390625,-54.57500076293945,-32.5625,16.950000762939453
1708009824886204200,3.6682041015625,-54.72500228881836,-32.47500228881836,16.5
1708009824896021500,3.678021484375,-54.38750076293945,-32.775001525878906,16.137500762939453
1708009824905838000,3.687838134765625,-54.38750076293945,-32.60000228881836,16.625
1708009824915651300,3.6976513671875,-53.900001525878906,-32.32500076293945,16.837499618530273
1708009824925465000,3.707465087890625,-54.22500228881836,-32.625,16.475000381469727
1708009824935279900,3.71727978515625,-54.5625,-32.48749923706055,16.5
1708009824945097700,3.72709765625,-54.07500076293945,-32.47500228881836,16.649999618530273
1708009824954912300,3.736912353515625,-54.5625,-32.36249923706055,16.512500762939453
1708009824964726300,3.746726318359375,-54.875,-31.962499618530273,16.55000114440918
1708009824974541800,3.756541748046875,-54.875,-32.47500228881836,16.5
1708009824984357400,3.766357421875,-55.25,-32.97500228881836,16.73750114440918
1708009824994172000,3.776171875,-54.91250228881836,-32.28750228881836,17.137500762939453
1708009825003986400,3.785986328125,-53.5625,-31.912500381469727,17.037500381469727
1708009825013798400,3.79579833984375,-53.900001525878906,-32.625,16.475000381469727
1708009825023611100,3.805611083984375,-54.42499923706055,-33.11249923706055,16.725000381469727
1708009825033425200,3.815425048828125,-54.75,-33.11249923706055,16.725000381469727
1708009825043243300,3.8252431640625,-55.087501525878906,-33.23749923706055,16.55000114440918
1708009825053065000,3.83506494140625,-55.087501525878906,-32.5625,16.950000762939453
1708009825062890800,3.844890869140625,-54.712501525878906,-32.07500076293945,16.700000762939453
1708009825072707000,3.85470703125,-54.5625,-32.48749923706055,16.5
1708009825082529500,3.864529541015625,-54.900001525878906,-32.73749923706055,16.462499618530273
1708009825092353800,3.874353759765625,-54.712501525878906,-32.78750228881836,15.975000381469727
1708009825102175000,3.884175048828125,-54.04999923706055,-32.75,16.3125
1708009825111997000,3.893996826171875,-54.07500076293945,-32.587501525878906,16.80000114440918
1708009825121813000,3.90381298828125,-54.04999923706055,-32.625,16.475000381469727
1708009825131630600,3.913630615234375,-54.22500228881836,-32.47500228881836,16.649999618530273
1708009825141448400,3.923448486328125,-54.22500228881836,-32.03750228881836,17.024999618530273
1708009825151266300,3.933266357421875,-53.73749923706055,-32.32500076293945,16.837499618530273
1708009825161084200,3.943084228515625,-54.23749923706055,-32.60000228881836,16.625
1708009825170901000,3.95290087890625,-54.91250228881836,-32.28750228881836,17.137500762939453
1708009825180719600,3.9627197265625,-54.20000076293945,-32.10000228881836,16.387500762939453
1708009825190533600,3.97253369140625,-54.20000076293945,-31.962499618530273,16.55000114440918
1708009825200350700,3.982350830078125,-54.41250228881836,-32.45000076293945,16.8125
1708009825210167000,3.9921669921875,-54.5625,-32.625,16.3125
1708009825219988700,4.00198876953125,-55.0625,-32.47500228881836,16.649999618530273
1708009825229811700,4.011811767578125,-54.72500228881836,-32.29999923706055,16.98750114440918
1708009825239633700,4.021633544921875,-54.22500228881836,-32.48749923706055,16.5
1708009825249456400,4.031456298828125,-54.04999923706055,-32.625,16.3125
1708009825259280400,4.0412802734375,-54.23749923706055,-32.5625,16.950000762939453
1708009825269105700,4.051105712890625,-54.22500228881836,-32.36249923706055,16.512500762939453
1708009825278925000,4.060925048828125,-54.375,-32.400001525878906,16.024999618530273
1708009825288742100,4.0707421875,-54.53750228881836,-32.8125,15.824999809265137
1708009825298558200,4.08055810546875,-54.22500228881836,-32.63750076293945,16.162500381469727
1708009825308376300,4.090376220703125,-54.38750076293945,-32.337501525878906,16.662500381469727
1708009825318193400,4.100193359375,-54.900001525878906,-32.60000228881836,16.475000381469727
1708009825328011500,4.110011474609375,-54.38750076293945,-32.36249923706055,16.512500762939453
1708009825337830700,4.11983056640625,-54.375,-32.51250076293945,16.17500114440918
1708009825347649000,4.12964892578125,-54.91250228881836,-32.712501525878906,16.774999618530273
1708009825357468400,4.139468505859375,-54.45000076293945,-33.03750228881836,17.524999618530273
1708009825367286500,4.14928662109375,-54.61249923706055,-32.92499923706055,17.375
1708009825377109200,4.159109130859375,-54.60000228881836,-32.78750228881836,17.25
1708009825386930400,4.168930419921875,-54.23749923706055,-32.5625,16.950000762939453
1708009825396752000,4.178751953125,-53.900001525878906,-32.73749923706055,16.625
1708009825406570200,4.1885703125,-54.07500076293945,-32.587501525878906,16.80000114440918
1708009825416388900,4.198388916015625,-53.88750076293945,-32.10000228881836,16.537500381469727
1708009825426210300,4.208210205078125,-54.20000076293945,-32.36249923706055,16.350000381469727
1708009825436026600,4.218026611328125,-55.212501525878906,-32.60000228881836,16.475000381469727
1708009825445843500,4.227843505859375,-55.0625,-32.47500228881836,16.649999618530273
1708009825455659000,4.237658935546875,-54.75,-32.4375,16.962499618530273
1708009825465478100,4.24747802734375,-54.42499923706055,-32.8125,17.075000762939453
1708009825475295500,4.25729541015625,-53.900001525878906,-32.86249923706055,16.61250114440918
1708009825485111800,4.26711181640625,-54.04999923706055,-32.625,16.3125
1708009825494927400,4.27692724609375,-54.20000076293945,-32.525001525878906,16.012500762939453
1708009825504745500,4.286745361328125,-54.375,-32.375,16.200000762939453
1708009825514560300,4.296560302734375,-54.72500228881836,-32.47500228881836,16.5
1708009825524374500,4.30637451171875,-54.23749923706055,-32.5625,16.950000762939453
1708009825534189300,4.316189208984375,-53.73749923706055,-32.45000076293945,16.8125
1708009825544003300,4.32600341796875,-53.900001525878906,-32.47500228881836,16.649999618530273
1708009825553815000,4.33581494140625,-54.23749923706055,-32.587501525878906,16.80000114440918
1708009825563628300,4.345628173828125,-54.22500228881836,-32.88750076293945,16.287500381469727
1708009825573446100,4.355446044921875,-54.38750076293945,-32.75,16.287500381469727
1708009825583264000,4.365263916015625,-54.900001525878906,-32.47500228881836,16.649999618530273
1708009825593078800,4.375078857421875,-54.72500228881836,-32.60000228881836,16.625
1708009825602891000,4.38489111328125,-55.04999923706055,-32.625,16.3125
1708009825612705300,4.394705322265625,-54.875,-32.07500076293945,16.700000762939453
1708009825622521600,4.404521484375,-54.20000076293945,-31.950000762939453,16.725000381469727
1708009825632331000,4.4143310546875,-54.75,-32.587501525878906,16.80000114440918
1708009825642147000,4.42414697265625,-55.25,-32.67499923706055,17.100000381469727
1708009825651962600,4.433962646484375,-54.86249923706055,-32.25,16.200000762939453
1708009825661776600,4.443776611328125,-54.1875,-32,16.087499618530273
1708009825671593000,4.453593017578125,-54.6875,-31.962499618530273,16.399999618530273
1708009825681408500,4.463408447265625,-54.86249923706055,-32.400001525878906,16.024999618530273
1708009825691223000,4.47322314453125,-54.20000076293945,-32.525001525878906,16.012500762939453
1708009825701036500,4.48303662109375,-54.04999923706055,-32.48749923706055,16.5
1708009825710848800,4.492848876953125,-53.75,-32.712501525878906,16.774999618530273
1708009825720660700,4.50266064453125,-54.087501525878906,-32.70000076293945,16.950000762939453
1708009825730475800,4.512475830078125,-54.23749923706055,-32.32500076293945,16.837499618530273
1708009825740292900,4.52229296875,-54.04999923706055,-32.212501525878906,16.6875
1708009825750109000,4.53210888671875,-54.57500076293945,-32.85000228881836,16.762500762939453
1708009825759924000,4.541924072265625,-54.57500076293945,-32.97500228881836,16.73750114440918
1708009825769738000,4.551738037109375,-54.38750076293945,-32.36249923706055,16.512500762939453
1708009825779549400,4.561549560546875,-55.025001525878906,-32.10000228881836,16.387500762939453
1708009825789363200,4.57136328125,-55.025001525878906,-32.11249923706055,16.212499618530273
1708009825799175700,4.58117578125,-54.03750228881836,-31.98750114440918,16.23750114440918
1708009825808989700,4.59098974609375,-53.88750076293945,-31.8125,16.73750114440918
1708009825818804700,4.6008046875,-54.712501525878906,-31.80000114440918,16.887500762939453
1708009825828623600,4.61062353515625,-55.23749923706055,-32.03750228881836,17.024999618530273
1708009825838441200,4.620441162109375,-55.04999923706055,-32.337501525878906,16.5
1708009825848256300,4.63025634765625,-54.53750228881836,-32.525001525878906,16.012500762939453
1708009825858070300,4.6400703125,-54.1875,-32.4375,15.71250057220459
1708009825867884300,4.64988427734375,-54.86249923706055,-32.41250228881836,15.862500190734863
1708009825877700000,4.6597001953125,-55.0625,-32.47500228881836,16.649999618530273
1708009825887519200,4.669519287109375,-54.72500228881836,-32.17499923706055,17
1708009825897341700,4.679341796875,-54.900001525878906,-32.47500228881836,16.649999618530273
1708009825907164000,4.689163818359375,-55.0625,-32.73749923706055,16.462499618530273
1708009825916983000,4.698983154296875,-54.900001525878906,-32.32500076293945,16.8125
1708009825926802000,4.708802001953125,-54.375,-31.962499618530273,16.399999618530273
1708009825936618000,4.718617919921875,-54.375,-32.25,16.200000762939453
1708009825946434600,4.7284345703125,-54.53750228881836,-32.525001525878906,16.012500762939453
1708009825956253200,4.738253173828125,-54.375,-32.63750076293945,16.162500381469727
1708009825966072300,4.748072265625,-54.38750076293945,-32.32500076293945,16.837499618530273
1708009825975894300,4.757894287109375,-54.03750228881836,-31.98750114440918,16.399999618530273
1708009825985720000,4.767719970703125,-54.375,-32.25,16.200000762939453
1708009825995541800,4.777541748046875,-54.53750228881836,-32.22500228881836,16.512500762939453
1708009826005364500,4.787364501953125,-54.525001525878906,-32.11249923706055,16.212499618530273
1708009826015184100,4.79718408203125,-54.53750228881836,-32.22500228881836,16.36250114440918
1708009826025003300,4.807003173828125,-54.375,-32.22500228881836,16.512500762939453
1708009826034820900,4.81682080078125,-54.22500228881836,-32.1875,16.837499618530273
1708009826044643600,4.8266435546875,-54.41250228881836,-33,16.42500114440918
1708009826054465800,4.8364658203125,-54.72500228881836,-33.45000076293945,15.90000057220459
1708009826064290000,4.8462900390625,-54.53750228881836,-32.92499923706055,15.975000381469727
1708009826074112800,4.85611279296875,-54.20000076293945,-32.26250076293945,16.05000114440918
1708009826083934700,4.865934814453125,-54.20000076293945,-32.375,16.200000762939453
1708009826093754600,4.875754638671875,-54.53750228881836,-32.22500228881836,16.512500762939453
1708009826103576300,4.885576416015625,-54.5625,-32.47500228881836,16.649999618530273
1708009826113394400,4.89539453125,-53.92499923706055,-32.97500228881836,16.73750114440918
1708009826123210500,4.90521044921875,-54.26250076293945,-32.54999923706055,17.262500762939453
1708009826133024500,4.9150244140625,-55.0625,-32.150001525878906,17.149999618530273
1708009826142843100,4.924843017578125,-55.04999923706055,-32.212501525878906,16.512500762939453
1708009826152658400,4.934658447265625,-54.53750228881836,-32.375,16.200000762939453
1708009826162476800,4.944476806640625,-54.86249923706055,-32.41250228881836,15.862500190734863
1708009826172294100,4.954294189453125,-55.38750076293945,-32.63750076293945,16.162500381469727
1708009826182113000,4.964113037109375,-54.22500228881836,-32.47500228881836,16.649999618530273
1708009826191932000,4.973931884765625,-54.22500228881836,-32.47500228881836,16.649999618530273
1708009826201750300,4.983750244140625,-55.087501525878906,-32.97500228881836,16.587499618530273
1708009826211569700,4.993569580078125,-54.57500076293945,-32.97500228881836,16.73750114440918
1708009826221387500,5.003387451171875,-54.76250076293945,-32.525001525878906,17.262500762939453
1708009826231202000,5.0132021484375,-54.91250228881836,-32.400001525878906,17.287500381469727
1708009826241020000,5.02302001953125,-54.38750076293945,-32.32500076293945,16.837499618530273
1708009826250834700,5.032834716796875,-54.86249923706055,-32.11249923706055,16.212499618530273
1708009826260650000,5.04264990234375,-54.86249923706055,-31.98750114440918,16.23750114440918
1708009826270463200,5.052463134765625,-54.875,-32.48749923706055,16.325000762939453
1708009826280274400,5.0622744140625,-54.900001525878906,-32.60000228881836,16.625
1708009826290087400,5.07208740234375,-54.900001525878906,-32.45000076293945,16.8125
1708009826299895800,5.081895751953125,-54.72500228881836,-32.32500076293945,16.8125
1708009826309710000,5.0917099609375,-54.38750076293945,-32.60000228881836,16.625
1708009826319529000,5.101529052734375,-54.72500228881836,-32.900001525878906,16.125
1708009826329349600,5.111349609375,-54.53750228881836,-32.525001525878906,16.012500762939453
1708009826339168800,5.121168701171875,-54.20000076293945,-32.36249923706055,16.350000381469727
1708009826348985600,5.130985595703125,-54.41250228881836,-32.85000228881836,16.762500762939453
1708009826358803000,5.140802978515625,-54.57500076293945,-32.85000228881836,16.762500762939453
1708009826368619300,5.150619384765625,-54.23749923706055,-32.73749923706055,16.625
1708009826378433000,5.16043310546875,-54.07500076293945,-32.73749923706055,16.625
1708009826388248600,5.17024853515625,-54.38750076293945,-32.60000228881836,16.625
1708009826398066000,5.18006591796875,-54.900001525878906,-32.337501525878906,16.662500381469727
1708009826407881700,5.1898818359375,-55.400001525878906,-32.45000076293945,16.80000114440918
1708009826417694500,5.199694580078125,-54.900001525878906,-32.73749923706055,16.61250114440918
1708009826427508000,5.209508056640625,-54.23749923706055,-32.60000228881836,16.625
1708009826437320200,5.2193203125,-54.07500076293945,-32.45000076293945,16.8125
1708009826447133000,5.2291328125,-54.22500228881836,-32.22500228881836,16.512500762939453
1708009826456947500,5.238947509765625,-54.53750228881836,-32.36249923706055,16.350000381469727
1708009826466760400,5.248760498046875,-54.712501525878906,-32.337501525878906,16.5
1708009826476574000,5.258573974609375,-54.20000076293945,-32.11249923706055,16.212499618530273
1708009826486388700,5.268388671875,-54.20000076293945,-31.850000381469727,16.42500114440918
1708009826496206000,5.2782060546875,-54.712501525878906,-32.10000228881836,16.537500381469727
1708009826506022400,5.2880224609375,-54.38750076293945,-32.625,16.475000381469727
1708009826515836000,5.2978359375,-54.04999923706055,-31.950000762939453,16.725000381469727
1708009826525653800,5.30765380859375,-54.712501525878906,-32.10000228881836,16.537500381469727
1708009826535474400,5.317474365234375,-54.900001525878906,-32.60000228881836,16.475000381469727
1708009826545295400,5.32729541015625,-54.41250228881836,-32.86249923706055,16.4375
1708009826555115800,5.33711572265625,-54.72500228881836,-32.75,16.287500381469727
1708009826564935000,5.346934814453125,-54.53750228881836,-32.525001525878906,16.012500762939453
1708009826574753800,5.35675390625,-54.20000076293945,-32.51250076293945,16.17500114440918
1708009826584573700,5.36657373046875,-54.875,-32.625,16.3125
1708009826594390500,5.376390625,-55.212501525878906,-32.337501525878906,16.662500381469727
1708009826604204800,5.386204833984375,-54.91250228881836,-32.400001525878906,17.287500381469727
1708009826614022700,5.396022705078125,-54.76250076293945,-32.525001525878906,17.262500762939453
1708009826623840500,5.405840576171875,-54.26250076293945,-32.54999923706055,17.11250114440918
1708009826633657900,5.415657958984375,-54.5625,-32.75,16.287500381469727
1708009826643469600,5.425469482421875,-54.6875,-32.400001525878906,16.024999618530273
1708009826653286000,5.435285888671875,-54.53750228881836,-31.837499618530273,16.575000762939453
1708009826663103700,5.445103759765625,-55.04999923706055,-32.22500228881836,16.36250114440918
1708009826672915700,5.454915771484375,-54.38750076293945,-32.625,16.3125
1708009826682731300,5.464731201171875,-54.07500076293945,-32.29999923706055,16.98750114440918
1708009826692547600,5.474547607421875,-54.38750076293945,-31.887500762939453,17.1875
1708009826702361000,5.484361083984375,-54.900001525878906,-32.337501525878906,16.662500381469727
1708009826712174600,5.494174560546875,-54.875,-32.48749923706055,16.325000762939453
1708009826721991400,5.503991455078125,-54.72500228881836,-32.212501525878906,16.6875
1708009826731810300,5.513810302734375,-54.72500228881836,-32.60000228881836,16.625
1708009826741630200,5.523630126953125,-54.38750076293945,-32.625,16.475000381469727
1708009826751448300,5.5334482421875,-54.72500228881836,-32.60000228881836,16.625
1708009826761263900,5.543263916015625,-54.5625,-32.32500076293945,16.837499618530273
1708009826771076900,5.553076904296875,-54.41250228881836,-32.45000076293945,16.8125
1708009826780894200,5.562894287109375,-54.91250228881836,-32.54999923706055,17.11250114440918
1708009826790709200,5.572709228515625,-54.72500228881836,-32.337501525878906,16.662500381469727
1708009826800524500,5.582524658203125,-54.712501525878906,-32.10000228881836,16.537500381469727
1708009826810341600,5.592341552734375,-55.04999923706055,-32.337501525878906,16.662500381469727
1708009826820158200,5.602158203125,-54.07500076293945,-32.47500228881836,16.649999618530273
1708009826829976000,5.61197607421875,-54.04999923706055,-32.48749923706055,16.5
1708009826839791900,5.6217919921875,-55.400001525878906,-33.01250076293945,16.274999618530273
1708009826849606700,5.631606689453125,-55.38750076293945,-33.3125,15.912500381469727
1708009826859420000,5.641419921875,-55.0625,-32.86249923706055,16.587499618530273
1708009826869239000,5.651239013671875,-54.60000228881836,-32.66250228881836,17.25
1708009826879057700,5.6610576171875,-54.5625,-32.60000228881836,16.625
1708009826888873000,5.670873046875,-54.5625,-32.48749923706055,16.5
1708009826898688500,5.6806884765625,-55.0625,-32.45000076293945,16.8125
1708009826908503300,5.69050341796875,-55.25,-32.66250228881836,17.25
1708009826918316800,5.70031689453125,-54.75,-32.41250228881836,17.137500762939453
1708009826928129000,5.71012890625,-55.0625,-32.29999923706055,16.98750114440918
1708009826937943300,5.719943359375,-55.400001525878906,-32.85000228881836,16.762500762939453
1708009826947758000,5.729758056640625,-54.57500076293945,-32.28750228881836,17.30000114440918
1708009826957573400,5.739573486328125,-54.75,-32.150001525878906,17.149999618530273
1708009826967384800,5.749384765625,-54.900001525878906,-32.47500228881836,16.649999618530273
1708009826977193000,5.75919287109375,-54.04999923706055,-32.625,16.475000381469727
1708009826987006500,5.76900634765625,-54.712501525878906,-32.625,16.3125
1708009826996824300,5.77882421875,-54.712501525878906,-32.775001525878906,16.137500762939453
1708009827006639600,5.7886396484375,-54.38750076293945,-32.60000228881836,16.625
1708009827016457500,5.79845751953125,-54.72500228881836,-32.337501525878906,16.662500381469727
1708009827026276400,5.8082763671875,-54.72500228881836,-32.60000228881836,16.475000381469727
1708009827036088300,5.81808837890625,-54.75,-32.86249923706055,16.61250114440918
1708009827045901800,5.82790185546875,-54.72500228881836,-32.60000228881836,16.625
1708009827055718100,5.83771826171875,-54.72500228881836,-32.47500228881836,16.649999618530273
1708009827065531400,5.847531494140625,-54.26250076293945,-32.54999923706055,17.11250114440918
1708009827075345700,5.857345703125,-54.11249923706055,-32.375,17.600000381469727
1708009827085159700,5.86715966796875,-54.26250076293945,-32.525001525878906,17.4375
1708009827094975500,5.8769755859375,-54.5625,-32.60000228881836,16.475000381469727
1708009827104792800,5.886792724609375,-54.72500228881836,-32.45000076293945,16.8125
1708009827114607900,5.89660791015625,-54.72500228881836,-32.025001525878906,17.17500114440918
1708009827124423400,5.90642333984375,-54.86249923706055,-32.10000228881836,16.387500762939453
1708009827134237700,5.91623779296875,-54.72500228881836,-32.47500228881836,16.5
1708009827144052500,5.926052490234375,-54.38750076293945,-32.47500228881836,16.649999618530273
1708009827153867000,5.935866943359375,-54.6875,-32.26250076293945,16.05000114440918
1708009827163683300,5.945683349609375,-54.6875,-32.26250076293945,16.05000114440918
1708009827173501000,5.9555009765625,-54.22500228881836,-32.48749923706055,16.5
1708009827183324400,5.965324462890625,-54.57500076293945,-32.29999923706055,16.98750114440918
1708009827193138000,5.975137939453125,-54.5625,-32.337501525878906,16.662500381469727
1708009827202955000,5.984955078125,-54.53750228881836,-32.375,16.200000762939453
1708009827212774400,5.9947744140625,-54.22500228881836,-32.625,16.3125
1708009827222590500,6.004590576171875,-54.41250228881836,-32.587501525878906,16.80000114440918
1708009827232405500,6.014405517578125,-54.900001525878906,-32.29999923706055,16.98750114440918
1708009827242226200,6.02422607421875,-54.22500228881836,-32.212501525878906,16.6875
1708009827252046000,6.034046142578125,-54.22500228881836,-32.212501525878906,16.6875
1708009827261864700,6.04386474609375,-54.5625,-32.60000228881836,16.475000381469727
1708009827271681800,6.053681884765625,-54.04999923706055,-32.63750076293945,16.162500381469727
1708009827281502700,6.063502685546875,-54.38750076293945,-32.337501525878906,16.662500381469727
1708009827291320300,6.0733203125,-55.0625,-32.60000228881836,16.625
1708009827301134600,6.083134521484375,-54.53750228881836,-32.525001525878906,16.012500762939453
1708009827310950700,6.09295068359375,-54.53750228881836,-32.63750076293945,16.162500381469727
1708009827320762600,6.1027626953125,-54.38750076293945,-32.625,16.475000381469727
1708009827330577000,6.112576904296875,-54.22500228881836,-32.625,16.3125
1708009827340389000,6.12238916015625,-54.5625,-32.60000228881836,16.625
1708009827350201900,6.132201904296875,-54.23749923706055,-32.4375,16.962499618530273
1708009827360015000,6.14201513671875,-53.88750076293945,-32.48749923706055,16.325000762939453
1708009827369824800,6.15182470703125,-54.72500228881836,-32.47500228881836,16.5
1708009827379638800,6.161638671875,-54.91250228881836,-32.41250228881836,17.137500762939453
1708009827389452300,6.171452392578125,-54.41250228881836,-32.17499923706055,17
1708009827399263500,6.181263427734375,-54.900001525878906,-32.45000076293945,16.8125
1708009827409076700,6.19107666015625,-54.91250228881836,-32.5625,16.950000762939453
1708009827418890800,6.200890869140625,-54.26250076293945,-32.54999923706055,17.11250114440918
1708009827428701200,6.210701171875,-54.07500076293945,-32.4375,16.962499618530273
1708009827438514200,6.22051416015625,-54.5625,-32.47500228881836,16.649999618530273
1708009827448327000,6.230326904296875,-54.712501525878906,-32.66250228881836,15.987500190734863
1708009827458138000,6.24013818359375,-54.375,-32.375,16.200000762939453
1708009827467949800,6.24994970703125,-54.712501525878906,-32.337501525878906,16.5
1708009827477761500,6.259761474609375,-54.525001525878906,-32.13750076293945,16.0625
1708009827487571700,6.26957177734375,-54.41250228881836,-32.45000076293945,16.8125
1708009827497384400,6.279384521484375,-54.60000228881836,-33.087501525878906,16.887500762939453
1708009827507201800,6.289201904296875,-54.22500228881836,-32.48749923706055,16.325000762939453
1708009827517014800,6.299014892578125,-54.38750076293945,-32.73749923706055,16.462499618530273
1708009827526830300,6.308830322265625,-54.60000228881836,-33.22500228881836,16.875
1708009827536643300,6.318643310546875,-54.41250228881836,-32.70000076293945,16.92500114440918
1708009827546458400,6.328458251953125,-53.9375,-32.67499923706055,17.262500762939453
1708009827556271400,6.338271240234375,-53.9375,-32.78750228881836,17.399999618530273
1708009827566086000,6.3480859375,-54.57500076293945,-32.54999923706055,17.11250114440918
1708009827575897600,6.357897705078125,-54.75,-32.712501525878906,16.774999618530273
1708009827585711000,6.367711181640625,-54.57500076293945,-32.82500076293945,16.92500114440918
1708009827595524400,6.3775244140625,-53.73749923706055,-32.4375,16.962499618530273
1708009827605337000,6.387337158203125,-53.900001525878906,-32.47500228881836,16.649999618530273
1708009827615147500,6.3971474609375,-54.04999923706055,-32.625,16.475000381469727
1708009827624961800,6.4069619140625,-54.04999923706055,-32.775001525878906,16.137500762939453
1708009827634774800,6.41677490234375,-54.875,-32.66250228881836,15.987500190734863
1708009827644589300,6.42658935546875,-55.38750076293945,-32.47500228881836,16.475000381469727
1708009827654402300,6.43640234375,-54.900001525878906,-32.587501525878906,16.80000114440918
1708009827664215600,6.446215576171875,-54.72500228881836,-32.86249923706055,16.4375
1708009827674029300,6.456029296875,-54.900001525878906,-32.587501525878906,16.80000114440918
1708009827683841500,6.465841552734375,-54.900001525878906,-31.912500381469727,17.037500381469727
1708009827693656600,6.475656494140625,-54.712501525878906,-31.537500381469727,16.92500114440918
1708009827703472000,6.48547216796875,-54.23749923706055,-32.32500076293945,16.837499618530273
1708009827713285600,6.49528564453125,-54.5625,-32.625,16.3125
1708009827723098600,6.5050986328125,-54.712501525878906,-32.625,16.3125
1708009827732912400,6.514912353515625,-54.41250228881836,-32.5625,16.950000762939453
1708009827742723600,6.5247236328125,-54.38750076293945,-32.212501525878906,16.6875
1708009827752535300,6.534535400390625,-55.20000076293945,-32.375,16.17500114440918
1708009827762347300,6.54434716796875,-55.025001525878906,-32.375,16.17500114440918
1708009827772162800,6.554162841796875,-54.525001525878906,-32.26250076293945,16.05000114440918
1708009827781980700,6.563980712890625,-54.41250228881836,-32.73749923706055,16.61250114440918
1708009827791794200,6.573794189453125,-54.75,-32.41250228881836,17.137500762939453
1708009827801612500,6.583612548828125,-54.900001525878906,-31.912500381469727,17.037500381469727
1708009827811429000,6.59342919921875,-55.212501525878906,-32.07500076293945,16.537500381469727
1708009827821243000,6.603242919921875,-55.38750076293945,-32.48749923706055,16.325000762939453
1708009827831056100,6.61305615234375,-55.025001525878906,-32.400001525878906,16.024999618530273
1708009827840866000,6.622865966796875,-54.86249923706055,-32.11249923706055,16.212499618530273
1708009827850679800,6.6326796875,-55.23749923706055,-32.60000228881836,16.625
1708009827860495000,6.6424951171875,-54.91250228881836,-32.70000076293945,16.92500114440918
1708009827870306000,6.65230615234375,-55.04999923706055,-32.337501525878906,16.662500381469727
1708009827880120000,6.6621201171875,-55.0625,-32.60000228881836,16.475000381469727
1708009827889933600,6.67193359375,-54.38750076293945,-32.337501525878906,16.662500381469727
1708009827899749600,6.68174951171875,-54.712501525878906,-32.525001525878906,16.012500762939453
1708009827909561300,6.691561279296875,-54.38750076293945,-32.212501525878906,16.6875
1708009827919373800,6.701373779296875,-54.04999923706055,-31.774999618530273,17.212499618530273
1708009827929184000,6.71118408203125,-54.375,-31.8125,16.73750114440918
1708009827938993000,6.720992919921875,-54.72500228881836,-32.0625,16.850000381469727
1708009827948799700,6.7307998046875,-54.22500228881836,-32.22500228881836,16.512500762939453
1708009827958615300,6.740615234375,-54.03750228881836,-32.11249923706055,16.212499618530273
1708009827968428500,6.750428466796875,-54.375,-32.11249923706055,16.212499618530273
1708009827978243600,6.76024365234375,-54.35000228881836,-31.837499618530273,16.399999618530273
1708009827988061200,6.770061279296875,-54.900001525878906,-32.337501525878906,16.662500381469727
1708009827997877800,6.779877685546875,-54.41250228881836,-32.86249923706055,16.61250114440918
1708009828007692500,6.789692626953125,-53.92499923706055,-32.5625,16.950000762939453
1708009828017510700,6.7995107421875,-54.42499923706055,-32.11249923706055,17.637500762939453
1708009828027327000,6.809326904296875,-54.41250228881836,-32.45000076293945,16.8125
1708009828037145900,6.819145751953125,-54.01250076293945,-32.5625,15.6875
1708009828046961400,6.82896142578125,-54.53750228881836,-32.525001525878906,16.012500762939453
1708009828056775400,6.838775390625,-54.5625,-32.36249923706055,16.512500762939453
1708009828066587000,6.8485869140625,-54.04999923706055,-32.1875,16.850000381469727
1708009828076401700,6.858401611328125,-55.04999923706055,-32.337501525878906,16.662500381469727
1708009828086220000,6.868219970703125,-55.400001525878906,-32.587501525878906,16.80000114440918
1708009828096036600,6.87803662109375,-54.712501525878906,-32.625,16.3125
1708009828105852700,6.887852783203125,-54.5625,-32.75,16.287500381469727
1708009828115665400,6.89766552734375,-54.91250228881836,-32.86249923706055,16.587499618530273
1708009828125479000,6.90747900390625,-54.72500228881836,-32.75,16.287500381469727
1708009828135294200,6.917294189453125,-54.53750228881836,-32.48749923706055,16.325000762939453
1708009828145106200,6.927106201171875,-54.5625,-32.60000228881836,16.475000381469727
1708009828154916900,6.936916748046875,-54.53750228881836,-32.525001525878906,16.012500762939453
1708009828164725500,6.9467255859375,-54.6875,-32.400001525878906,16.024999618530273
1708009828174538000,6.9565380859375,-54.525001525878906,-32.400001525878906,16.024999618530273
1708009828184352800,6.966352783203125,-54.375,-32.63750076293945,16.162500381469727
1708009828194164700,6.976164794921875,-54.23749923706055,-32.86249923706055,16.61250114440918
1708009828203978000,6.98597802734375,-54.26250076293945,-32.54999923706055,17.11250114440918
1708009828213791700,6.995791748046875,-54.07500076293945,-32.03750228881836,17.024999618530273
1708009828223608600,7.005608642578125,-53.73749923706055,-32.337501525878906,16.662500381469727
1708009828233420800,7.0154208984375,-53.900001525878906,-32.625,16.475000381469727
1708009828243234000,7.025234130859375,-53.900001525878906,-32.47500228881836,16.649999618530273
1708009828253045800,7.035045654296875,-54.04999923706055,-32.337501525878906,16.662500381469727
1708009828262861600,7.044861572265625,-54.38750076293945,-32.47500228881836,16.649999618530273
1708009828272672000,7.054672119140625,-54.60000228881836,-32.400001525878906,17.450000762939453
1708009828282485200,7.0644853515625,-54.91250228881836,-32.67499923706055,17.100000381469727
1708009828292298000,7.074298095703125,-54.75,-32.97500228881836,16.73750114440918
1708009828302111200,7.084111328125,-54.5625,-32.45000076293945,16.8125
1708009828311921700,7.093921630859375,-54.38750076293945,-32.60000228881836,16.625
1708009828321734700,7.103734619140625,-54.23749923706055,-32.73749923706055,16.625
1708009828331547600,7.113547607421875,-54.20000076293945,-32.11249923706055,16.212499618530273
1708009828341363500,7.123363525390625,-54.53750228881836,-32.10000228881836,16.387500762939453
1708009828351181300,7.133181396484375,-54.75,-32.5625,16.950000762939453
1708009828360998100,7.142998046875,-54.42499923706055,-32.82500076293945,16.92500114440918
1708009828370811000,7.152810791015625,-54.23749923706055,-33.125,16.575000762939453
1708009828380625000,7.162625,-54.38750076293945,-32.48749923706055,16.5
1708009828390440000,7.17243994140625,-54.22500228881836,-32.47500228881836,16.649999618530273
1708009828400252700,7.182252685546875,-54.75,-32.41250228881836,17.137500762939453
1708009828410067200,7.192067138671875,-55.25,-32.54999923706055,17.11250114440918
1708009828419876600,7.201876708984375,-55.0625,-32.587501525878906,16.80000114440918
1708009828429690000,7.211690185546875,-55.0625,-32.4375,16.962499618530273
1708009828439506000,7.221505859375,-55.04999923706055,-32.212501525878906,16.512500762939453
1708009828449321000,7.231321044921875,-54.6875,-31.962499618530273,16.399999618530273
1708009828459137500,7.241137451171875,-54.5625,-32.212501525878906,16.6875
1708009828468953600,7.25095361328125,-54.75,-32.4375,16.962499618530273
1708009828478770400,7.2607705078125,-54.57500076293945,-32.86249923706055,16.61250114440918
1708009828488587000,7.2705869140625,-54.72500228881836,-32.47500228881836,16.5
1708009828498404600,7.280404541015625,-55.212501525878906,-32.337501525878906,16.662500381469727
1708009828508221000,7.290220947265625,-54.53750228881836,-32.25,16.200000762939453
1708009828518041300,7.300041259765625,-54.38750076293945,-32.75,16.287500381469727
1708009828527858200,7.309858154296875,-54.60000228881836,-33.5,16.512500762939453
1708009828537675000,7.319675048828125,-54.23749923706055,-33.01250076293945,16.274999618530273
1708009828547491000,7.329490966796875,-54.5625,-32.212501525878906,16.6875
1708009828557308000,7.339307861328125,-54.53750228881836,-31.950000762939453,16.725000381469727
1708009828567124700,7.349124755859375,-54.03750228881836,-32.10000228881836,16.387500762939453
1708009828576940300,7.358940185546875,-54.875,-32.48749923706055,16.325000762939453
1708009828586756900,7.3687568359375,-54.91250228881836,-33,16.587499618530273
1708009828596569600,7.378569580078125,-54.41250228881836,-32.73749923706055,16.61250114440918
1708009828606381300,7.38838134765625,-54.712501525878906,-32.36249923706055,16.350000381469727
1708009828616194000,7.398194091796875,-54.41250228881836,-32.29999923706055,16.98750114440918
1708009828626007600,7.408007568359375,-54.38750076293945,-32.47500228881836,16.649999618530273
1708009828635818800,7.41781884765625,-54.900001525878906,-33.150001525878906,16.25
1708009828645633500,7.427633544921875,-54.5625,-33.01250076293945,16.274999618530273
1708009828655450000,7.4374501953125,-54.03750228881836,-32.66250228881836,15.987500190734863
1708009828665266200,7.44726611328125,-54.900001525878906,-32.73749923706055,16.462499618530273
1708009828675077000,7.4570771484375,-55.38750076293945,-32.337501525878906,16.5
1708009828684889900,7.466889892578125,-54.525001525878906,-32.28750228881836,15.875
1708009828694706400,7.47670654296875,-54.03750228881836,-32.22500228881836,16.36250114440918
1708009828704523300,7.486523193359375,-54.22500228881836,-32.07500076293945,16.700000762939453
1708009828714336800,7.496336669921875,-54.20000076293945,-31.6875,16.73750114440918
1708009828724150500,7.506150634765625,-54.38750076293945,-32.337501525878906,16.662500381469727
1708009828733965300,7.51596533203125,-55.087501525878906,-32.70000076293945,16.92500114440918
1708009828743780400,7.5257802734375,-54.75,-32.70000076293945,16.92500114440918
1708009828753595100,7.53559521484375,-54.41250228881836,-32.86249923706055,16.4375
1708009828763408600,7.54540869140625,-54.23749923706055,-32.86249923706055,16.61250114440918
1708009828773222000,7.555221923828125,-54.26250076293945,-32.962501525878906,16.912500381469727
1708009828783036200,7.5650361328125,-54.75,-32.86249923706055,16.61250114440918
1708009828792843800,7.57484375,-54.875,-32.900001525878906,16.125
1708009828802655000,7.584655029296875,-54.53750228881836,-32.22500228881836,16.36250114440918
1708009828812466200,7.594466064453125,-54.712501525878906,-32.36249923706055,16.350000381469727
1708009828822277600,7.604277587890625,-54.57500076293945,-33,16.42500114440918
1708009828832086300,7.614086181640625,-54.22500228881836,-32.47500228881836,16.649999618530273
1708009828841892600,7.623892578125,-54.875,-31.950000762939453,16.725000381469727
1708009828851701200,7.633701171875,-55.04999923706055,-32.212501525878906,16.6875
1708009828861507000,7.643507080078125,-54.22500228881836,-32.07500076293945,16.700000762939453
1708009828871318500,7.653318603515625,-54.20000076293945,-31.962499618530273,16.55000114440918
1708009828881124900,7.663124755859375,-54.22500228881836,-32.22500228881836,16.512500762939453
1708009828890932700,7.6729326171875,-54.1875,-32.150001525878906,15.90000057220459
1708009828900741000,7.6827412109375,-55.01250076293945,-32.28750228881836,15.875
1708009828910550800,7.69255078125,-54.72500228881836,-32.60000228881836,16.625
1708009828920363000,7.702363037109375,-54.04999923706055,-32.337501525878906,16.662500381469727
1708009828930173000,7.7121728515625,-54.72500228881836,-32.29999923706055,16.98750114440918
1708009828939985200,7.721985107421875,-54.91250228881836,-32.525001525878906,17.262500762939453
1708009828949799200,7.731799072265625,-53.92499923706055,-32.54999923706055,17.262500762939453
1708009828959615500,7.741615478515625,-54.23749923706055,-32.712501525878906,16.774999618530273
1708009828969431000,7.75143115234375,-54.900001525878906,-32.60000228881836,16.475000381469727
1708009828979247000,7.7612470703125,-54.38750076293945,-32.1875,16.837499618530273
1708009828989061400,7.771061279296875,-54.712501525878906,-31.80000114440918,16.887500762939453
1708009828998873000,7.780873046875,-55.212501525878906,-32.07500076293945,16.700000762939453
1708009829008689700,7.790689697265625,-55.20000076293945,-32.375,16.17500114440918
1708009829018503000,7.8005029296875,-55.212501525878906,-32.47500228881836,16.5
1708009829028317000,7.81031689453125,-55.0625,-32.45000076293945,16.8125
1708009829038127600,7.820127685546875,-54.22500228881836,-32.48749923706055,16.5
1708009829047944200,7.829944091796875,-53.88750076293945,-33.04999923706055,15.949999809265137
1708009829057760000,7.839760009765625,-54.22500228881836,-33.1875,15.9375
1708009829067573800,7.84957373046875,-54.20000076293945,-32.36249923706055,16.350000381469727
1708009829077385000,7.859385009765625,-54.23749923706055,-32.587501525878906,16.80000114440918
1708009829087194000,7.869194091796875,-54.76250076293945,-32.9375,17.0625
1708009829097005000,7.879005126953125,-54.57500076293945,-32.73749923706055,16.61250114440918
1708009829106820600,7.888820556640625,-54.41250228881836,-33,16.587499618530273
1708009829116640000,7.898639892578125,-54.42499923706055,-32.82500076293945,16.92500114440918
1708009829126458000,7.9084580078125,-54.57500076293945,-32.28750228881836,17.30000114440918
1708009829136275500,7.918275390625,-55.23749923706055,-32.29999923706055,16.98750114440918
1708009829146097400,7.928097412109375,-55.087501525878906,-32.28750228881836,17.137500762939453
1708009829155917600,7.93791748046875,-54.375,-31.962499618530273,16.55000114440918
1708009829165739800,7.94773974609375,-54.53750228881836,-32.25,16.200000762939453
1708009829175557000,7.95755712890625,-54.41250228881836,-32.587501525878906,16.80000114440918
1708009829185373000,7.967373046875,-54.07500076293945,-32.47500228881836,16.649999618530273
1708009829195188700,7.977188720703125,-54.04999923706055,-32.75,16.3125
1708009829205008600,7.987008544921875,-54.91250228881836,-33,16.587499618530273
1708009829214826200,7.996826171875,-54.38750076293945,-32.73749923706055,16.462499618530273
1708009829224644400,8.006644287109374,-54.1875,-32.13750076293945,16.0625
1708009829234460700,8.016460693359376,-54.712501525878906,-31.8125,16.725000381469727
1708009829244277800,8.02627783203125,-54.22500228881836,-32.48749923706055,16.5
1708009829254096000,8.036095947265625,-53.712501525878906,-32.900001525878906,16.125
1708009829263914200,8.045914306640626,-54.26250076293945,-32.9375,17.0625
1708009829273730800,8.055730712890625,-54.26250076293945,-32.67499923706055,17.262500762939453
1708009829283544800,8.065544921875,-54.5625,-32.03750228881836,17.024999618530273
1708009829293359000,8.075359130859376,-54.75,-32.150001525878906,17.325000762939453
1708009829303176400,8.085176513671875,-54.22500228881836,-32.07500076293945,16.700000762939453
1708009829312987100,8.094987060546876,-54.35000228881836,-31.725000381469727,16.42500114440918
1708009829322803700,8.1048037109375,-55.025001525878906,-31.962499618530273,16.387500762939453
1708009829332622000,8.1146220703125,-54.20000076293945,-32.26250076293945,16.05000114440918
1708009829342434300,8.124434326171874,-54.22500228881836,-32.36249923706055,16.512500762939453
1708009829352247800,8.134247802734375,-54.375,-31.8125,16.73750114440918
1708009829362061000,8.14406103515625,-54.35000228881836,-31.850000381469727,16.25
1708009829371872500,8.15387255859375,-55.025001525878906,-32.13750076293945,16.0625
1708009829381681200,8.16368115234375,-55.36249923706055,-32.26250076293945,16.05000114440918
1708009829391495400,8.173495361328126,-54.53750228881836,-32.10000228881836,16.537500381469727
1708009829401309000,8.183308837890625,-54.6875,-31.725000381469727,16.274999618530273
1708009829411123700,8.193123779296876,-54.6875,-32.54999923706055,15.6875
1708009829420938000,8.20293798828125,-54.22500228881836,-32.775001525878906,16.137500762939453
1708009829430753000,8.2127529296875,-54.38750076293945,-32.47500228881836,16.649999618530273
1708009829440565200,8.222565185546875,-54.75,-32.86249923706055,16.61250114440918
1708009829450384600,8.232384521484375,-54.53750228881836,-32.775001525878906,16.137500762939453
1708009829460202800,8.24220263671875,-54.6875,-32.400001525878906,16.024999618530273
1708009829470020400,8.252020263671875,-54.712501525878906,-32.10000228881836,16.387500762939453
1708009829479839000,8.2618388671875,-54.337501525878906,-32.1875,15.425000190734863
1708009829489660200,8.27166015625,-54.20000076293945,-32.82500076293945,15.65000057220459
1708009829499478000,8.28147802734375,-54.42499923706055,-32.8125,17.075000762939453
1708009829509296400,8.29129638671875,-54.04999923706055,-32.48749923706055,16.325000762939453
1708009829519115000,8.301114990234375,-54.1875,-32.13750076293945,16.0625
1708009829528937000,8.31093701171875,-54.900001525878906,-32.47500228881836,16.649999618530273
1708009829538753500,8.32075341796875,-54.38750076293945,-32.48749923706055,16.5
1708009829548570400,8.3305703125,-54.72500228881836,-32.47500228881836,16.649999618530273
1708009829558386400,8.340386474609375,-54.91250228881836,-32.5625,16.950000762939453
1708009829568202800,8.35020263671875,-54.23749923706055,-32.45000076293945,16.8125
1708009829578022400,8.3600224609375,-54.20000076293945,-32.10000228881836,16.537500381469727
1708009829587836000,8.3698359375,-54.375,-32.10000228881836,16.387500762939453
1708009829597649200,8.379649169921874,-54.1875,-32.41250228881836,15.875
1708009829607457300,8.389457275390624,-54.5625,-33.01250076293945,16.274999618530273
1708009829617270800,8.399270751953125,-54.91250228881836,-33.11249923706055,16.725000381469727
1708009829627085300,8.409085205078124,-54.57500076293945,-32.712501525878906,16.774999618530273
1708009829636900000,8.418900146484376,-54.38750076293945,-32.32500076293945,16.837499618530273
1708009829646719500,8.428719482421876,-54.900001525878906,-32.1875,16.837499618530273
1708009829656537900,8.438537841796874,-54.900001525878906,-32.337501525878906,16.662500381469727
1708009829666355700,8.448355712890624,-54.875,-32.212501525878906,16.512500762939453
1708009829676168700,8.458168701171875,-54.53750228881836,-32.48749923706055,16.325000762939453
1708009829685983200,8.467983154296874,-54.53750228881836,-32.525001525878906,16.012500762939453
1708009829695796500,8.47779638671875,-54.6875,-32.26250076293945,16.05000114440918
1708009829705612300,8.4876123046875,-54.525001525878906,-32.41250228881836,15.862500190734863
1708009829715425500,8.497425537109375,-54.03750228881836,-32.25,16.200000762939453
1708009829725240000,8.507239990234375,-53.88750076293945,-32.10000228881836,16.537500381469727
1708009829735057700,8.5170576171875,-54.53750228881836,-32.48749923706055,16.325000762939453
1708009829744877600,8.526877685546875,-54.53750228881836,-32.51250076293945,16.17500114440918
1708009829754689500,8.536689453125,-54.712501525878906,-32.22500228881836,16.36250114440918
1708009829764500500,8.54650048828125,-54.712501525878906,-32.22500228881836,16.36250114440918
1708009829774315000,8.55631494140625,-53.73749923706055,-33.01250076293945,16.274999618530273
1708009829784133600,8.566133544921875,-54.087501525878906,-32.97500228881836,16.73750114440918
1708009829793951000,8.575950927734375,-54.900001525878906,-32.47500228881836,16.649999618530273
1708009829803769900,8.585769775390625,-54.875,-32.625,16.3125
1708009829813588500,8.59558837890625,-54.875,-32.375,16.17500114440918
1708009829823412000,8.605411865234375,-54.86249923706055,-32.400001525878906,16.024999618530273
1708009829833231600,8.615231689453125,-54.53750228881836,-32.36249923706055,16.350000381469727
1708009829843048700,8.625048583984375,-54.875,-32.375,16.17500114440918
1708009829852865000,8.634864990234375,-55.025001525878906,-32.375,16.17500114440918
1708009829862679300,8.64467919921875,-54.712501525878906,-32.10000228881836,16.387500762939453
1708009829872498200,8.654498291015624,-54.875,-31.512500762939453,17.075000762939453
1708009829882316000,8.66431591796875,-54.875,-31.80000114440918,16.887500762939453
1708009829892131300,8.67413134765625,-54.53750228881836,-32.25,16.200000762939453
1708009829901947600,8.68394775390625,-54.6875,-31.850000381469727,16.25
1708009829911761000,8.693760986328124,-54.375,-32.36249923706055,16.350000381469727
1708009829921576400,8.703576416015625,-53.86249923706055,-32.67499923706055,15.83750057220459
1708009829931391200,8.71339111328125,-54.6875,-32.13750076293945,16.0625
1708009829941206300,8.723206298828124,-54.6875,-31.962499618530273,16.399999618530273
1708009829951024400,8.7330244140625,-54.04999923706055,-32.36249923706055,16.350000381469727
1708009829960841700,8.742841796875,-54.72500228881836,-32.47500228881836,16.5
1708009829970658800,8.752658935546876,-54.38750076293945,-32.60000228881836,16.625
1708009829980477400,8.7624775390625,-53.712501525878906,-32.22500228881836,16.537500381469727
1708009829990294800,8.772294677734376,-54.53750228881836,-31.837499618530273,16.575000762939453
1708009830000111600,8.782111572265626,-54.875,-32.625,16.3125
1708009830009930800,8.7919306640625,-54.712501525878906,-32.66250228881836,15.987500190734863
1708009830019749600,8.80174951171875,-54.875,-32.22500228881836,16.36250114440918
1708009830029563000,8.81156298828125,-54.72500228881836,-32.337501525878906,16.662500381469727
1708009830039376600,8.821376708984374,-54.22500228881836,-32.625,16.3125
1708009830049190000,8.83118994140625,-54.375,-32.8125,15.65000057220459
1708009830059002600,8.841002685546876,-54.712501525878906,-32.625,16.3125
1708009830068814800,8.85081494140625,-53.88750076293945,-32.212501525878906,16.6875
1708009830078630400,8.86063037109375,-54.04999923706055,-32.337501525878906,16.662500381469727
1708009830088447700,8.87044775390625,-54.41250228881836,-32.86249923706055,16.61250114440918
1708009830098269200,8.880269287109375,-54.04999923706055,-32.36249923706055,16.350000381469727
1708009830108085000,8.8900849609375,-54.1875,-32.5625,15.6875
1708009830117901000,8.899901123046876,-54.375,-32.67499923706055,15.83750057220459
1708009830127717600,8.909717529296875,-54.22500228881836,-32.47500228881836,16.649999618530273
1708009830137539800,8.919539794921874,-54.38750076293945,-32.47500228881836,16.649999618530273
1708009830147357700,8.929357666015624,-54.375,-32.36249923706055,16.350000381469727
1708009830157177900,8.939177734375,-54.375,-32.22500228881836,16.512500762939453
1708009830166994200,8.948994140625,-54.712501525878906,-32.07500076293945,16.700000762939453
1708009830176811300,8.958811279296874,-54.20000076293945,-31.962499618530273,16.55000114440918
1708009830186627600,8.968627685546876,-53.86249923706055,-31.837499618530273,16.575000762939453
1708009830196445400,8.978445556640626,-54.03750228881836,-31.837499618530273,16.575000762939453
1708009830206260200,8.98826025390625,-54.375,-31.962499618530273,16.55000114440918
1708009830216078600,8.99807861328125,-54.20000076293945,-31.962499618530273,16.399999618530273
1708009830225897500,9.0078974609375,-54.03750228881836,-32.51250076293945,16.17500114440918
1708009830235712500,9.01771240234375,-54.22500228881836,-32.775001525878906,16.137500762939453
1708009830245527300,9.02752734375,-54.712501525878906,-32.51250076293945,16.17500114440918
1708009830255340000,9.037340087890625,-54.86249923706055,-32.25,16.200000762939453
1708009830265154000,9.047154052734374,-54.53750228881836,-32.25,16.200000762939453
1708009830274968000,9.056968017578125,-54.22500228881836,-32.36249923706055,16.512500762939453
1708009830284780500,9.066780517578126,-54.20000076293945,-32.22500228881836,16.36250114440918
1708009830294594000,9.076593994140625,-54.900001525878906,-32.32500076293945,16.8125
1708009830304407300,9.0864072265625,-54.5625,-32.212501525878906,16.6875
1708009830314221300,9.09622119140625,-54.375,-32.63750076293945,16.162500381469727
1708009830324037000,9.106037109375,-54.900001525878906,-32.73749923706055,16.61250114440918
1708009830333853400,9.115853515625,-54.375,-32.22500228881836,16.512500762939453
1708009830343670300,9.125670166015626,-54.20000076293945,-32.10000228881836,16.387500762939453
1708009830353485800,9.13548583984375,-54.20000076293945,-32.10000228881836,16.387500762939453
1708009830363304000,9.145303955078125,-54.03750228881836,-31.98750114440918,16.23750114440918
1708009830373117700,9.15511767578125,-53.88750076293945,-32.07500076293945,16.700000762939453
1708009830382936800,9.164936767578125,-53.900001525878906,-32.47500228881836,16.649999618530273
1708009830392752400,9.17475244140625,-54.22500228881836,-32.625,16.475000381469727
1708009830402567700,9.184567626953125,-54.72500228881836,-32.337501525878906,16.662500381469727
1708009830412383700,9.1943837890625,-54.900001525878906,-32.60000228881836,16.625
1708009830422200800,9.204200927734375,-54.22500228881836,-32.48749923706055,16.5
1708009830432018400,9.214018310546875,-54.20000076293945,-31.850000381469727,16.42500114440918
1708009830441838800,9.2238388671875,-54.712501525878906,-32.10000228881836,16.537500381469727
1708009830451656000,9.233656005859375,-54.20000076293945,-32.9375,15.800000190734863
1708009830461475600,9.2434755859375,-54.20000076293945,-32.78750228881836,15.975000381469727
1708009830471297000,9.253297119140624,-55.0625,-32.60000228881836,16.475000381469727
1708009830481117000,9.263116943359375,-55.20000076293945,-32.375,16.17500114440918
1708009830490937900,9.272937744140625,-54.6875,-31.837499618530273,16.399999618530273
1708009830500753000,9.2827529296875,-54.20000076293945,-31.950000762939453,16.725000381469727
1708009830510568400,9.292568359375,-53.712501525878906,-32.212501525878906,16.6875
1708009830520385500,9.302385498046876,-54.875,-32.36249923706055,16.350000381469727
1708009830530203600,9.31220361328125,-55.38750076293945,-32.625,16.3125
1708009830540015400,9.322015380859375,-54.712501525878906,-32.36249923706055,16.350000381469727
1708009830549831000,9.331830810546874,-54.72500228881836,-32.29999923706055,16.98750114440918
1708009830559649800,9.34164990234375,-54.72500228881836,-32.32500076293945,16.8125
1708009830569469000,9.351468994140625,-54.900001525878906,-32.60000228881836,16.475000381469727
1708009830579293200,9.361293212890626,-55.0625,-32.73749923706055,16.61250114440918
1708009830589110500,9.371110595703126,-54.22500228881836,-32.63750076293945,16.162500381469727
1708009830598925600,9.380925537109375,-54.375,-32.400001525878906,16.024999618530273
1708009830608741000,9.3907412109375,-54.86249923706055,-32.525001525878906,16.012500762939453
1708009830618556000,9.400555908203126,-54.5625,-32.900001525878906,16.125
1708009830628372000,9.4103720703125,-54.57500076293945,-32.86249923706055,16.61250114440918
1708009830638191900,9.42019189453125,-55.400001525878906,-32.45000076293945,16.80000114440918
1708009830648011000,9.430010986328124,-55.212501525878906,-32.337501525878906,16.662500381469727
1708009830657828900,9.439828857421874,-55.212501525878906,-32.212501525878906,16.512500762939453
1708009830667645000,9.44964501953125,-55.025001525878906,-32.375,16.17500114440918
1708009830677460200,9.459460205078125,-54.38750076293945,-32.48749923706055,16.325000762939453
1708009830687279000,9.469279052734375,-54.22500228881836,-32.36249923706055,16.512500762939453
1708009830697098500,9.479098388671876,-55.025001525878906,-32.25,16.200000762939453
1708009830706916000,9.488916015625,-55.53750228881836,-31.8125,16.575000762939453
1708009830716734500,9.498734375,-54.86249923706055,-31.700000762939453,16.587499618530273
1708009830726552300,9.50855224609375,-55.212501525878906,-32.337501525878906,16.662500381469727
1708009830736367600,9.51836767578125,-55.400001525878906,-32.4375,16.962499618530273
1708009830746186200,9.528186279296875,-54.875,-32.07500076293945,16.700000762939453
1708009830755998000,9.537998046875,-54.6875,-31.850000381469727,16.25
1708009830765810400,9.547810546875,-54.6875,-32.400001525878906,16.024999618530273
1708009830775623700,9.557623779296875,-54.375,-32.375,16.200000762939453
1708009830785436000,9.567435791015624,-54.6875,-32,16.087499618530273
1708009830795247900,9.577247802734375,-54.53750228881836,-32.25,16.200000762939453
1708009830805060600,9.587060546875,-54.20000076293945,-32.25,16.200000762939453
1708009830814872300,9.596872314453124,-55.20000076293945,-32.10000228881836,16.387500762939453
1708009830824687000,9.60668701171875,-55.04999923706055,-32.07500076293945,16.700000762939453
1708009830834500900,9.6165009765625,-54.20000076293945,-31.962499618530273,16.55000114440918
1708009830844316700,9.626316650390624,-55.38750076293945,-32.212501525878906,16.512500762939453
1708009830854129700,9.636129638671875,-55.57500076293945,-32.025001525878906,17.17500114440918
1708009830863941600,9.645941650390625,-54.38750076293945,-32.337501525878906,16.662500381469727
1708009830873756000,9.655755859375,-54.712501525878906,-32.63750076293945,16.162500381469727
1708009830883571200,9.6655712890625,-55.212501525878906,-32.48749923706055,16.325000762939453
1708009830893384400,9.675384521484375,-54.57500076293945,-32.86249923706055,16.61250114440918
1708009830903203300,9.685203369140625,-54.5625,-32.47500228881836,16.649999618530273
1708009830913023000,9.69502294921875,-54.53750228881836,-32.22500228881836,16.36250114440918
1708009830922842000,9.704842041015626,-54.20000076293945,-32.10000228881836,16.387500762939453
1708009830932661800,9.714661865234374,-54.20000076293945,-32.22500228881836,16.36250114440918
1708009830942478800,9.724478759765624,-54.53750228881836,-32.22500228881836,16.36250114440918
1708009830952291300,9.734291259765625,-54.712501525878906,-32.10000228881836,16.387500762939453
1708009830962105900,9.74410595703125,-54.375,-32.375,16.200000762939453
1708009830971920400,9.75392041015625,-53.86249923706055,-32.41250228881836,15.875
1708009830981734400,9.763734375,-54.01250076293945,-32.13750076293945,16.0625
1708009830991547400,9.77354736328125,-54.375,-32.375,16.200000762939453
1708009831001362200,9.783362060546875,-55.025001525878906,-32.67499923706055,15.83750057220459
1708009831011178200,9.79317822265625,-54.86249923706055,-32.54999923706055,15.6875
1708009831020993500,9.80299365234375,-54.86249923706055,-32.54999923706055,15.862500190734863
1708009831030809300,9.812809326171875,-54.86249923706055,-32.10000228881836,16.387500762939453
1708009831040627500,9.82262744140625,-54.20000076293945,-31.962499618530273,16.399999618530273
1708009831050441700,9.832441650390624,-54.6875,-31.98750114440918,16.23750114440918
1708009831060259000,9.842259033203124,-54.525001525878906,-31.98750114440918,16.23750114440918
1708009831070078500,9.852078369140624,-54.1875,-32.17499923706055,15.75
1708009831079899600,9.861899658203125,-54.20000076293945,-32.26250076293945,16.05000114440918
1708009831089719600,9.871719482421875,-54.5625,-32.47500228881836,16.649999618530273
1708009831099543000,9.88154296875,-54.875,-32.48749923706055,16.325000762939453
1708009831109368000,9.8913681640625,-54.875,-32.212501525878906,16.512500762939453
1708009831119191300,9.90119140625,-54.23749923706055,-32.587501525878906,16.80000114440918
1708009831129009200,9.911009033203126,-54.23749923706055,-32.86249923706055,16.61250114440918
1708009831138825500,9.920825439453125,-55.23749923706055,-32.85000228881836,16.587499618530273
1708009831148638700,9.930638671875,-54.91250228881836,-33.125,16.575000762939453
1708009831158451700,9.94045166015625,-54.38750076293945,-32.36249923706055,16.512500762939453
1708009831168269300,9.950269287109375,-54.86249923706055,-31.837499618530273,16.399999618530273
1708009831178085600,9.960085693359375,-54.53750228881836,-32.10000228881836,16.387500762939453
1708009831187902700,9.96990283203125,-54.6875,-31.55000114440918,16.762500762939453
1708009831197718800,9.97971875,-55.01250076293945,-31.587499618530273,16.287500381469727
1708009831207538200,9.9895380859375,-55.01250076293945,-32.150001525878906,15.75
1708009831217357600,9.999357666015625,-54.86249923706055,-32.11249923706055,16.212499618530273
1708009831227176200,10.00917626953125,-54.875,-32.36249923706055,16.350000381469727
1708009831236995300,10.018995361328125,-55.0625,-32.86249923706055,16.4375
1708009831246814000,10.02881396484375,-54.38750076293945,-32.625,16.3125
1708009831256631800,10.0386318359375,-54.20000076293945,-32.67499923706055,15.83750057220459
1708009831266451200,10.048451171875,-54.375,-32.36249923706055,16.350000381469727
1708009831276266000,10.058265869140625,-54.38750076293945,-32.337501525878906,16.662500381469727
1708009831286080500,10.06808056640625,-54.41250228881836,-32.85000228881836,16.762500762939453
1708009831295897300,10.0778974609375,-55.087501525878906,-32.97500228881836,16.587499618530273
1708009831305718000,10.087718017578124,-54.375,-32.92499923706055,15.975000381469727
1708009831315539500,10.09753955078125,-54.525001525878906,-32.26250076293945,16.05000114440918
1708009831325360000,10.107360107421876,-54.5625,-32.1875,16.837499618530273
1708009831335182300,10.117182373046875,-54.38750076293945,-32.0625,16.850000381469727
1708009831345003500,10.12700341796875,-55.025001525878906,-31.850000381469727,16.25
1708009831354816500,10.13681640625,-54.712501525878906,-32.22500228881836,16.512500762939453
1708009831364630000,10.146630126953125,-54.22500228881836,-32.47500228881836,16.649999618530273
1708009831374444000,10.156444091796875,-55.025001525878906,-32.375,16.17500114440918
1708009831384256800,10.1662568359375,-55.04999923706055,-32.63750076293945,16.162500381469727
1708009831394073300,10.1760732421875,-54.22500228881836,-32.625,16.475000381469727
1708009831403895800,10.185895751953124,-54.5625,-32.60000228881836,16.475000381469727
1708009831413719000,10.195718994140625,-54.712501525878906,-32.625,16.3125
1708009831423540200,10.205540283203124,-54.6875,-32.26250076293945,16.05000114440918
1708009831433360000,10.21535986328125,-54.6875,-32.41250228881836,15.862500190734863
1708009831443177000,10.225177001953124,-55.025001525878906,-32.41250228881836,15.862500190734863
1708009831452996000,10.23499609375,-54.86249923706055,-32.54999923706055,15.862500190734863
1708009831462816800,10.244816650390625,-54.6875,-32.41250228881836,15.862500190734863
1708009831472635000,10.254634765625,-54.53750228881836,-32.36249923706055,16.350000381469727
1708009831482452500,10.264452392578125,-54.72500228881836,-32.73749923706055,16.462499618530273
1708009831492269600,10.27426953125,-55.0625,-32.86249923706055,16.587499618530273
1708009831502090800,10.2840908203125,-55.087501525878906,-33.11249923706055,16.575000762939453
1708009831511910400,10.293910400390626,-54.23749923706055,-32.73749923706055,16.625
1708009831521730600,10.30373046875,-54.04999923706055,-32.1875,16.850000381469727
1708009831531550700,10.31355078125,-54.41250228881836,-32.73749923706055,16.61250114440918
1708009831541369600,10.32336962890625,-53.900001525878906,-32.587501525878906,16.80000114440918
1708009831551190300,10.333190185546876,-53.73749923706055,-32.47500228881836,16.649999618530273
1708009831561012500,10.343012451171875,-53.9375,-33.20000076293945,17.037500381469727
1708009831570832100,10.35283203125,-54.11249923706055,-33.07500076293945,17.037500381469727
1708009831580651800,10.36265185546875,-54.22500228881836,-32.48749923706055,16.5
1708009831590466000,10.372466064453125,-54.38750076293945,-32.75,16.287500381469727
1708009831600282000,10.3822822265625,-54.23749923706055,-33,16.587499618530273
1708009831610100200,10.392100341796874,-53.962501525878906,-33.01250076293945,17.700000762939453
1708009831619918300,10.40191845703125,-53.60000228881836,-32.9375,17.225000381469727
1708009831629733000,10.411733154296876,-53.712501525878906,-32.48749923706055,16.5
1708009831639547100,10.421547119140625,-54.5625,-32.60000228881836,16.625
1708009831649361400,10.431361328125,-54.23749923706055,-32.712501525878906,16.774999618530273
1708009831659177200,10.44117724609375,-53.900001525878906,-32.587501525878906,16.80000114440918
1708009831668992000,10.450991943359375,-54.5625,-32.60000228881836,16.625
1708009831678805500,10.460805419921876,-54.41250228881836,-32.45000076293945,16.8125
1708009831688619000,10.470618896484375,-54.23749923706055,-32.32500076293945,16.837499618530273
1708009831698434800,10.480434814453124,-54.38750076293945,-32.48749923706055,16.5
1708009831708252200,10.490252197265624,-54.57500076293945,-33,16.587499618530273
1708009831718065200,10.500065185546875,-55.0625,-32.60000228881836,16.625
1708009831727880000,10.5098798828125,-54.900001525878906,-32.60000228881836,16.475000381469727
1708009831737693400,10.519693359375,-54.23749923706055,-33,16.587499618530273
1708009831747511600,10.529511474609375,-53.73749923706055,-32.587501525878906,16.80000114440918
1708009831757327000,10.5393271484375,-54.07500076293945,-32.025001525878906,17.337499618530273
1708009831767144400,10.54914453125,-54.41250228881836,-32.29999923706055,16.98750114440918
1708009831776961000,10.5589609375,-54.38750076293945,-32.88750076293945,16.287500381469727
1708009831786775300,10.568775390625,-54.900001525878906,-32.73749923706055,16.462499618530273
1708009831796591400,10.57859130859375,-54.57500076293945,-32.587501525878906,16.80000114440918
1708009831806407200,10.5884072265625,-53.92499923706055,-32.85000228881836,16.762500762939453
1708009831816223200,10.59822314453125,-54.41250228881836,-32.587501525878906,16.80000114440918
1708009831826040000,10.6080400390625,-54.57500076293945,-32.150001525878906,17.149999618530273
1708009831835856400,10.6178564453125,-54.23749923706055,-32.28750228881836,17.149999618530273
1708009831845675000,10.627675048828126,-54.23749923706055,-32.587501525878906,16.80000114440918
1708009831855493600,10.63749365234375,-54.5625,-32.48749923706055,16.5
1708009831865312800,10.647312744140624,-54.375,-32.25,16.200000762939453
1708009831875131400,10.65713134765625,-54.53750228881836,-31.950000762939453,16.725000381469727
1708009831884950500,10.666950439453124,-54.72500228881836,-32.025001525878906,17.17500114440918
1708009831894770400,10.6767705078125,-54.38750076293945,-32.0625,16.850000381469727
1708009831904594000,10.686593994140624,-54.5625,-32.212501525878906,16.6875
1708009831914413800,10.696413818359375,-54.72500228881836,-32.900001525878906,16.125
1708009831924235000,10.706235107421875,-54.712501525878906,-32.63750076293945,16.162500381469727
1708009831934056700,10.716056640625,-55.0625,-32.47500228881836,16.649999618530273
1708009831943880400,10.72588037109375,-54.75,-32.70000076293945,16.92500114440918
1708009831953702000,10.735701904296874,-54.07500076293945,-32.60000228881836,16.625
1708009831963519500,10.74551953125,-54.23749923706055,-32.32500076293945,16.837499618530273
1708009831973335300,10.755335205078126,-54.41250228881836,-32.73749923706055,16.61250114440918
1708009831983157000,10.765156982421875,-54.23749923706055,-32.86249923706055,16.4375
1708009831992972500,10.77497265625,-54.41250228881836,-32.73749923706055,16.61250114440918
1708009832002793700,10.784793701171875,-54.38750076293945,-32.75,16.287500381469727
1708009832012614100,10.7946142578125,-54.22500228881836,-32.625,16.475000381469727
1708009832022435300,10.804435302734374,-54.07500076293945,-32.47500228881836,16.649999618530273
1708009832032254200,10.814254150390624,-53.73749923706055,-32.29999923706055,16.98750114440918
1708009832042072800,10.82407275390625,-54.087501525878906,-32.28750228881836,17.30000114440918
1708009832051894300,10.833894287109375,-54.5625,-32.337501525878906,16.662500381469727
1708009832061714400,10.84371435546875,-54.5625,-32.45000076293945,16.8125
1708009832071536000,10.8535361328125,-54.72500228881836,-32.337501525878906,16.662500381469727
1708009832081360100,10.863360107421874,-54.67499923706055,-31.875,16.087499618530273
1708009832091181300,10.873181396484375,-53.900001525878906,-32.17499923706055,17
1708009832101003800,10.883003662109376,-53.587501525878906,-32.54999923706055,17.11250114440918
1708009832110826000,10.892825927734375,-53.900001525878906,-32.625,16.475000381469727
1708009832120643300,10.902643310546875,-54.23749923706055,-32.60000228881836,16.625
1708009832130463700,10.912463623046875,-54.22500228881836,-32.1875,16.837499618530273
1708009832140279600,10.922279541015625,-54.07500076293945,-32.03750228881836,17.024999618530273
1708009832150100500,10.9321005859375,-54.07500076293945,-32.17499923706055,17
1708009832159920600,10.941920654296876,-54.72500228881836,-32.60000228881836,16.475000381469727
1708009832169737700,10.95173779296875,-54.875,-32.625,16.3125
1708009832179558400,10.961558349609374,-54.72500228881836,-32.1875,16.837499618530273
1708009832189379000,10.971379150390625,-54.20000076293945,-31.950000762939453,16.725000381469727
1708009832199200500,10.981200439453126,-54.53750228881836,-31.962499618530273,16.55000114440918
1708009832209020700,10.991020751953124,-54.22500228881836,-32.48749923706055,16.5
1708009832218842400,11.00084228515625,-54.23749923706055,-33.01250076293945,16.274999618530273
1708009832228659000,11.010658935546875,-54.75,-33.125,16.575000762939453
1708009832238478000,11.02047802734375,-54.57500076293945,-32.86249923706055,16.61250114440918
1708009832248296700,11.030296630859375,-54.22500228881836,-32.48749923706055,16.325000762939453
1708009832258115000,11.040114990234375,-54.20000076293945,-32.10000228881836,16.537500381469727
1708009832267932700,11.0499326171875,-54.5625,-32.337501525878906,16.662500381469727
1708009832277751600,11.05975146484375,-54.23749923706055,-32.712501525878906,16.774999618530273
1708009832287566800,11.06956689453125,-54.75,-32.86249923706055,16.61250114440918
1708009832297386200,11.07938623046875,-54.75,-32.4375,16.962499618530273
1708009832307206700,11.08920654296875,-54.23749923706055,-32.29999923706055,16.98750114440918
1708009832317024800,11.099024658203126,-54.91250228881836,-32.82500076293945,16.92500114440918
1708009832326844700,11.1088447265625,-55.400001525878906,-32.85000228881836,16.762500762939453
1708009832336664600,11.11866455078125,-54.57500076293945,-32.85000228881836,16.762500762939453
1708009832346484700,11.128484619140625,-54.76250076293945,-33.087501525878906,16.887500762939453
1708009832356302000,11.138302001953125,-54.72500228881836,-32.73749923706055,16.61250114440918
1708009832366122200,11.148122314453126,-54.23749923706055,-32.32500076293945,16.837499618530273
1708009832375940400,11.1579404296875,-53.900001525878906,-32.28750228881836,17.149999618530273
1708009832385755600,11.167755615234375,-54.23749923706055,-32.025001525878906,17.337499618530273
1708009832395574800,11.17757470703125,-54.5625,-32.1875,16.837499618530273
1708009832405393200,11.18739306640625,-54.22500228881836,-32.63750076293945,16.162500381469727
1708009832415207700,11.197207763671875,-54.375,-32.63750076293945,16.162500381469727
1708009832425026800,11.20702685546875,-54.22500228881836,-32.47500228881836,16.649999618530273
1708009832434842600,11.216842529296875,-54.78750228881836,-32.63750076293945,17.5625
1708009832444662500,11.22666259765625,-54.78750228881836,-33.03750228881836,17.524999618530273
1708009832454481400,11.2364814453125,-54.42499923706055,-33.087501525878906,16.887500762939453
1708009832464299500,11.246299560546875,-54.57500076293945,-32.587501525878906,16.80000114440918
1708009832474117000,11.2561171875,-54.91250228881836,-32.5625,16.950000762939453
1708009832483936800,11.265936767578125,-54.60000228881836,-32.67499923706055,17.100000381469727
1708009832493751300,11.275751220703125,-54.23749923706055,-32.5625,16.950000762939453
1708009832503566300,11.28556640625,-54.41250228881836,-32.86249923706055,16.61250114440918
1708009832513382400,11.29538232421875,-54.38750076293945,-32.60000228881836,16.625
1708009832523201500,11.305201416015626,-54.22500228881836,-32.337501525878906,16.662500381469727
1708009832533021400,11.315021484375,-54.57500076293945,-32.85000228881836,16.762500762939453
1708009832542838000,11.324838134765624,-54.5625,-32.73749923706055,16.462499618530273
1708009832552654600,11.334654541015626,-54.22500228881836,-32.48749923706055,16.5
1708009832562470000,11.344469970703125,-54.23749923706055,-32.587501525878906,16.80000114440918
1708009832572290800,11.354290771484376,-54.72500228881836,-32.45000076293945,16.8125
1708009832582112300,11.3641123046875,-54.72500228881836,-32.47500228881836,16.649999618530273
1708009832591930400,11.373930419921875,-54.72500228881836,-32.60000228881836,16.625
1708009832601747700,11.383747802734375,-54.38750076293945,-32.212501525878906,16.6875
1708009832611567000,11.393567138671875,-54.20000076293945,-32.10000228881836,16.537500381469727
1708009832621387000,11.403386962890625,-54.23749923706055,-32.32500076293945,16.837499618530273
1708009832631205000,11.413205078125,-54.22500228881836,-32.22500228881836,16.512500762939453
1708009832641022000,11.42302197265625,-54.6875,-32.13750076293945,16.0625
1708009832650839800,11.43283984375,-55.04999923706055,-32.212501525878906,16.512500762939453
1708009832660658400,11.442658447265625,-54.5625,-32.337501525878906,16.662500381469727
1708009832670480100,11.452480224609374,-54.72500228881836,-32.47500228881836,16.649999618530273
1708009832680302300,11.46230224609375,-54.900001525878906,-32.60000228881836,16.625
1708009832690126300,11.472126220703124,-55.025001525878906,-32.25,16.200000762939453
1708009832699951400,11.481951416015624,-54.86249923706055,-32.11249923706055,16.212499618530273
1708009832709776000,11.49177587890625,-54.712501525878906,-32.07500076293945,16.700000762939453
1708009832719598800,11.501598876953125,-54.72500228881836,-32.47500228881836,16.649999618530273
1708009832729420500,11.511420654296876,-54.712501525878906,-32.625,16.3125
1708009832739242000,11.521241943359374,-54.20000076293945,-32.66250228881836,15.987500190734863
1708009832749062400,11.5310625,-54.03750228881836,-32.67499923706055,15.83750057220459
1708009832758884600,11.540884521484376,-54.875,-32.337501525878906,16.5
1708009832768704800,11.550704833984375,-55.212501525878906,-32.212501525878906,16.512500762939453
1708009832778524200,11.560524169921875,-54.35000228881836,-31.98750114440918,16.23750114440918
1708009832788339200,11.570339111328124,-54.20000076293945,-32.10000228881836,16.537500381469727
1708009832798155800,11.58015576171875,-54.5625,-32.337501525878906,16.662500381469727
1708009832807971300,11.589971435546875,-54.72500228881836,-32.337501525878906,16.662500381469727
1708009832817790000,11.5997900390625,-54.875,-32.337501525878906,16.5
1708009832827607000,11.60960693359375,-54.72500228881836,-32.32500076293945,16.8125
1708009832837425400,11.61942529296875,-54.72500228881836,-32.03750228881836,17.024999618530273
1708009832847242000,11.629241943359375,-55.025001525878906,-32.26250076293945,16.05000114440918
1708009832857058800,11.639058837890625,-54.375,-32.25,16.200000762939453
1708009832866881300,11.64888134765625,-53.67499923706055,-31.875,16.100000381469727
1708009832876698600,11.65869873046875,-54.16250228881836,-31.912500381469727,15.787500381469727
1708009832886517000,11.66851708984375,-54.6875,-32.400001525878906,16.024999618530273
1708009832896338000,11.678337890625,-54.22500228881836,-32.63750076293945,16.162500381469727
1708009832906159000,11.6881591796875,-54.875,-32.625,16.3125
1708009832915980000,11.69797998046875,-54.875,-32.375,16.17500114440918
1708009832925800000,11.707800048828124,-54.1875,-32.28750228881836,15.875
1708009832935617000,11.717616943359374,-54.20000076293945,-32.400001525878906,16.024999618530273
1708009832945436200,11.727436279296874,-54.375,-32.375,16.200000762939453
1708009832955255000,11.737255126953125,-54.20000076293945,-32.26250076293945,16.05000114440918
1708009832965071400,11.7470712890625,-54.53750228881836,-32.25,16.200000762939453
1708009832974887400,11.756887451171876,-54.875,-32.337501525878906,16.5
1708009832984702000,11.766701904296875,-54.38750076293945,-32.212501525878906,16.6875
1708009832994520300,11.776520263671875,-54.712501525878906,-32.07500076293945,16.700000762939453
1708009833004340500,11.786340576171876,-54.72500228881836,-32.337501525878906,16.662500381469727
1708009833014163200,11.7961630859375,-54.38750076293945,-32.47500228881836,16.649999618530273
1708009833023987200,11.8059873046875,-54.712501525878906,-32.337501525878906,16.5
1708009833033804000,11.815803955078126,-54.900001525878906,-32.47500228881836,16.649999618530273
1708009833043619300,11.825619384765625,-54.53750228881836,-32.48749923706055,16.325000762939453
1708009833053436200,11.835436279296875,-54.20000076293945,-32.51250076293945,16.17500114440918
1708009833063260000,11.845260009765624,-54.22500228881836,-32.47500228881836,16.649999618530273
1708009833073079300,11.855079345703125,-54.03750228881836,-32.10000228881836,16.537500381469727
1708009833082899700,11.864899658203125,-54.20000076293945,-32.26250076293945,16.05000114440918
1708009833092721000,11.874720947265626,-54.712501525878906,-32.525001525878906,16.012500762939453
1708009833102543400,11.88454345703125,-53.70000076293945,-32.11249923706055,16.212499618530273
1708009833112364800,11.89436474609375,-54.01250076293945,-32.4375,15.71250057220459
1708009833122186800,11.904186767578125,-54.86249923706055,-32.54999923706055,15.6875
1708009833132005000,11.914005126953125,-54.525001525878906,-32.400001525878906,16.024999618530273
1708009833141823000,11.923822998046875,-54.5625,-32.60000228881836,16.475000381469727
1708009833151639000,11.93363916015625,-54.23749923706055,-32.587501525878906,16.80000114440918
1708009833161462300,11.943462158203126,-54.07500076293945,-32.32500076293945,16.837499618530273
1708009833171284000,11.953283935546875,-54.38750076293945,-32.60000228881836,16.625
1708009833181102800,11.963102783203125,-54.900001525878906,-32.60000228881836,16.625
1708009833190920000,11.972919921875,-54.86249923706055,-31.98750114440918,16.23750114440918
1708009833200737300,11.9827373046875,-54.67499923706055,-31.73750114440918,16.100000381469727
1708009833210554400,11.992554443359374,-54.875,-31.8125,16.725000381469727
1708009833220367400,12.002367431640625,-54.72500228881836,-32.73749923706055,16.462499618530273
1708009833230184200,12.01218408203125,-54.900001525878906,-32.32500076293945,16.8125
1708009833240004000,12.022004150390625,-55.04999923706055,-31.774999618530273,17.037500381469727
1708009833249825800,12.03182568359375,-54.900001525878906,-32.337501525878906,16.662500381469727
1708009833259650000,12.041650146484375,-54.72500228881836,-32.86249923706055,16.4375
1708009833269473000,12.05147314453125,-55.0625,-32.73749923706055,16.61250114440918
1708009833279293200,12.061293212890625,-54.72500228881836,-32.47500228881836,16.649999618530273
1708009833289108700,12.071108642578125,-54.875,-32.07500076293945,16.700000762939453
1708009833298927900,12.080927978515625,-54.875,-31.92500114440918,16.875
1708009833308749000,12.0907490234375,-54.22500228881836,-32.47500228881836,16.649999618530273
1708009833318567200,12.100567138671876,-54.07500076293945,-32.60000228881836,16.625
1708009833328384300,12.11038427734375,-54.22500228881836,-32.48749923706055,16.325000762939453
1708009833338201900,12.120201904296875,-54.22500228881836,-32.48749923706055,16.5
1708009833348023600,12.1300234375,-54.22500228881836,-32.212501525878906,16.6875
1708009833357841200,12.139841064453124,-54.712501525878906,-31.950000762939453,16.725000381469727
1708009833367660000,12.149659912109374,-54.38750076293945,-32.07500076293945,16.700000762939453
1708009833377480700,12.159480712890625,-54.53750228881836,-32.51250076293945,16.17500114440918
1708009833387300600,12.169300537109375,-55.212501525878906,-32.775001525878906,16.137500762939453
1708009833397121300,12.179121337890624,-54.875,-32.625,16.3125
1708009833406940200,12.188940185546874,-54.875,-32.07500076293945,16.700000762939453
1708009833416760000,12.198760009765625,-55.54999923706055,-32.337501525878906,16.662500381469727
1708009833426579200,12.2085791015625,-54.6875,-32.400001525878906,16.024999618530273
1708009833436397300,12.218397216796875,-54.01250076293945,-32.150001525878906,15.90000057220459
1708009833446219000,12.228218994140626,-54.1875,-31.98750114440918,16.23750114440918
1708009833456040000,12.2380400390625,-54.20000076293945,-32.25,16.200000762939453
1708009833465859600,12.247859619140625,-54.375,-32.63750076293945,16.162500381469727
1708009833475677400,12.257677490234375,-54.5625,-32.48749923706055,16.5
1708009833485491700,12.26749169921875,-54.86249923706055,-32.11249923706055,16.212499618530273
1708009833495307800,12.277307861328126,-54.86249923706055,-32.10000228881836,16.387500762939453
1708009833505126100,12.287126220703126,-54.53750228881836,-31.962499618530273,16.399999618530273
1708009833514939600,12.296939697265625,-54.6875,-31.575000762939453,16.4375
1708009833524755700,12.306755615234374,-54.712501525878906,-32.22500228881836,16.512500762939453
1708009833534574000,12.316573974609375,-54.38750076293945,-32.73749923706055,16.462499618530273
1708009833544396000,12.32639599609375,-54.38750076293945,-32.60000228881836,16.625
1708009833554214400,12.33621435546875,-55.212501525878906,-32.625,16.3125
1708009833564034000,12.346033935546876,-55.85000228881836,-31.98750114440918,16.23750114440918
1708009833573852700,12.355852783203124,-55.36249923706055,-31.837499618530273,16.399999618530273
1708009833583672000,12.365672119140624,-54.837501525878906,-32.150001525878906,15.90000057220459
1708009833593488600,12.375488525390624,-54.837501525878906,-32.025001525878906,15.912500381469727
1708009833603307500,12.3853076171875,-54.1875,-31.98750114440918,16.23750114440918
1708009833613130500,12.395130615234375,-54.375,-32.375,16.200000762939453
1708009833622954800,12.404954833984375,-54.22500228881836,-32.75,16.3125
1708009833632773400,12.4147734375,-53.712501525878906,-32.900001525878906,16.125
1708009833642595800,12.424595947265624,-54.20000076293945,-32.82500076293945,15.65000057220459
1708009833652415200,12.434415283203125,-54.20000076293945,-31.950000762939453,16.725000381469727
1708009833662237000,12.44423681640625,-53.900001525878906,-31.762500762939453,17.375
1708009833672057300,12.454057373046876,-54.07500076293945,-32.47500228881836,16.649999618530273
1708009833681878500,12.46387841796875,-54.04999923706055,-32.36249923706055,16.350000381469727
1708009833691699500,12.473699462890625,-54.01250076293945,-32.28750228881836,15.875
1708009833701520400,12.483520263671876,-54.6875,-32.400001525878906,16.024999618530273
1708009833711343400,12.49334326171875,-54.5,-32.025001525878906,15.912500381469727
1708009833721162800,12.503162841796875,-54.1875,-32.025001525878906,15.912500381469727
1708009833730984400,12.512984375,-54.35000228881836,-32.26250076293945,16.05000114440918
1708009833740804600,12.5228046875,-54.53750228881836,-32.22500228881836,16.512500762939453
1708009833750625300,12.532625244140625,-54.53750228881836,-32.10000228881836,16.387500762939453
1708009833760448300,12.5424482421875,-54.20000076293945,-32.51250076293945,16.17500114440918
1708009833770268400,12.552268310546875,-54.38750076293945,-32.75,16.287500381469727
1708009833780089900,12.56208984375,-54.41250228881836,-32.73749923706055,16.61250114440918
1708009833789906400,12.571906494140626,-54.91250228881836,-32.86249923706055,16.587499618530273
1708009833799726800,12.581726806640624,-55.04999923706055,-32.625,16.3125
1708009833809546500,12.59154638671875,-54.20000076293945,-31.962499618530273,16.399999618530273
1708009833819365400,12.601365478515625,-54.525001525878906,-32.26250076293945,16.05000114440918
1708009833829184500,12.6111845703125,-54.38750076293945,-32.75,16.287500381469727
1708009833839006200,12.621006103515626,-54.23749923706055,-32.29999923706055,16.98750114440918
1708009833848824300,12.63082421875,-55.212501525878906,-32.0625,16.850000381469727
1708009833858644200,12.640644287109374,-55.38750076293945,-32.36249923706055,16.350000381469727
1708009833868463900,12.6504638671875,-54.53750228881836,-32.22500228881836,16.36250114440918
1708009833878283500,12.660283447265625,-54.20000076293945,-32.10000228881836,16.537500381469727
1708009833888100600,12.6701005859375,-54.375,-32.22500228881836,16.512500762939453
1708009833897919200,12.679919189453125,-54.38750076293945,-32.48749923706055,16.325000762939453
1708009833907739600,12.68973974609375,-54.22500228881836,-32.63750076293945,16.162500381469727
1708009833917561900,12.699561767578125,-54.53750228881836,-32.63750076293945,16.162500381469727
1708009833927382500,12.709382568359375,-54.712501525878906,-32.625,16.3125
1708009833937201000,12.719200927734375,-54.53750228881836,-32.22500228881836,16.36250114440918
1708009833947021300,12.729021240234376,-54.38750076293945,-32.47500228881836,16.649999618530273
1708009833956838100,12.738838134765626,-54.23749923706055,-32.85000228881836,16.762500762939453
1708009833966659300,12.748659423828125,-54.5625,-32.60000228881836,16.475000381469727
1708009833976479200,12.758479248046875,-55.0625,-32.60000228881836,16.475000381469727
1708009833986299400,12.76829931640625,-54.72500228881836,-32.212501525878906,16.6875
1708009833996120600,12.77812060546875,-54.875,-32.22500228881836,16.36250114440918
1708009834005940200,12.787940185546875,-55.212501525878906,-32.775001525878906,16.137500762939453
1708009834015758600,12.797758544921875,-55.04999923706055,-32.337501525878906,16.5
1708009834025580800,12.807580810546876,-54.712501525878906,-32.10000228881836,16.537500381469727
1708009834035401500,12.8174013671875,-54.53750228881836,-32.51250076293945,16.17500114440918
1708009834045221400,12.827221435546875,-54.35000228881836,-32.41250228881836,15.875
1708009834055040500,12.83704052734375,-54.86249923706055,-32.11249923706055,16.212499618530273
1708009834064856600,12.846856689453125,-54.875,-32.375,16.17500114440918
1708009834074667800,12.856667724609375,-54.375,-32.67499923706055,15.83750057220459
1708009834084479700,12.866479736328126,-54.712501525878906,-32.36249923706055,16.350000381469727
1708009834094293000,12.87629296875,-54.72500228881836,-32.32500076293945,16.8125
1708009834104109300,12.886109375,-54.20000076293945,-31.962499618530273,16.399999618530273
1708009834113928400,12.895928466796875,-54.375,-31.962499618530273,16.55000114440918
1708009834123746800,12.905746826171875,-54.75,-32.4375,16.962499618530273
1708009834133560600,12.915560546875,-54.22500228881836,-32.36249923706055,16.512500762939453
1708009834143377200,12.925377197265625,-54.20000076293945,-32.11249923706055,16.212499618530273
1708009834153194000,12.935194091796875,-55.04999923706055,-32.22500228881836,16.36250114440918
1708009834163011600,12.945011474609375,-54.712501525878906,-32.22500228881836,16.36250114440918
1708009834172829000,12.954828857421875,-54.375,-31.962499618530273,16.55000114440918
1708009834182648300,12.9646484375,-54.72500228881836,-32.1875,16.837499618530273
1708009834192462300,12.97446240234375,-54.875,-32.48749923706055,16.325000762939453
1708009834202280000,12.984280029296874,-54.712501525878906,-32.8125,15.824999809265137
1708009834212098000,12.99409814453125,-54.72500228881836,-32.60000228881836,16.475000381469727
1708009834221914000,13.0039140625,-54.53750228881836,-32.375,16.200000762939453
1708009834231728400,13.013728271484375,-54.38750076293945,-32.47500228881836,16.649999618530273
1708009834241541400,13.023541259765626,-54.07500076293945,-32.73749923706055,16.625
1708009834251352000,13.03335205078125,-54.1875,-32.41250228881836,15.875
1708009834261167600,13.043167724609376,-54.712501525878906,-32.375,16.17500114440918
1708009834270982700,13.052982666015625,-54.23749923706055,-32.60000228881836,16.625
1708009834280796000,13.0627958984375,-54.22500228881836,-32.22500228881836,16.512500762939453
1708009834290609200,13.072609130859375,-54.712501525878906,-32.337501525878906,16.5
1708009834300423700,13.082423583984376,-54.86249923706055,-32.26250076293945,16.05000114440918
1708009834310239200,13.0922392578125,-54.6875,-32.400001525878906,16.024999618530273
1708009834320052700,13.102052734375,-54.72500228881836,-32.47500228881836,16.5
1708009834329864400,13.111864501953125,-54.72500228881836,-32.73749923706055,16.61250114440918
1708009834339684400,13.121684326171875,-54.57500076293945,-32.97500228881836,16.73750114440918
1708009834349503700,13.131503662109376,-54.5625,-32.75,16.287500381469727
1708009834359324700,13.14132470703125,-54.5625,-32.48749923706055,16.5
1708009834369144800,13.151144775390625,-54.5625,-32.337501525878906,16.662500381469727
1708009834378967600,13.160967529296874,-55.04999923706055,-32.36249923706055,16.350000381469727
1708009834388788000,13.1707880859375,-54.712501525878906,-32.337501525878906,16.5
1708009834398608000,13.18060791015625,-54.38750076293945,-32.36249923706055,16.512500762939453
1708009834408424000,13.190423828125,-54.712501525878906,-32.625,16.3125
1708009834418237400,13.200237548828126,-54.875,-33.04999923706055,15.949999809265137
1708009834428049400,13.21004931640625,-54.53750228881836,-32.67499923706055,15.83750057220459
1708009834437865200,13.219865234375,-54.375,-32.63750076293945,16.162500381469727
1708009834447676400,13.229676513671874,-54.900001525878906,-32.73749923706055,16.61250114440918
1708009834457494000,13.239493896484374,-54.6875,-32.400001525878906,16.024999618530273
1708009834467312000,13.24931201171875,-55.17499923706055,-32.41250228881836,15.71250057220459
1708009834477127700,13.259127685546876,-55.70000076293945,-32.48749923706055,16.325000762939453
1708009834486945500,13.268945556640626,-54.72500228881836,-32.60000228881836,16.475000381469727
1708009834496759600,13.278759521484375,-54.23749923706055,-32.60000228881836,16.625
1708009834506577000,13.288576904296875,-54.22500228881836,-32.212501525878906,16.6875
1708009834516394200,13.298394287109375,-54.53750228881836,-32.36249923706055,16.350000381469727
1708009834526208300,13.308208251953126,-55.400001525878906,-32.60000228881836,16.625
1708009834536022800,13.318022705078125,-55.73749923706055,-32.712501525878906,16.61250114440918
1708009834545837800,13.327837890625,-55.400001525878906,-32.85000228881836,16.587499618530273
1708009834555655400,13.337655517578124,-55.400001525878906,-32.73749923706055,16.462499618530273
1708009834565474300,13.347474365234374,-54.6875,-31.98750114440918,16.23750114440918
1708009834575292000,13.3572919921875,-54.20000076293945,-31.837499618530273,16.575000762939453
1708009834585105200,13.367105224609375,-54.712501525878906,-32.07500076293945,16.700000762939453
1708009834594923000,13.376923095703125,-54.712501525878906,-32.10000228881836,16.537500381469727
1708009834604740400,13.386740234375,-54.22500228881836,-32.22500228881836,16.512500762939453
1708009834614558200,13.39655810546875,-54.875,-32.47500228881836,16.5
1708009834624377000,13.406377197265625,-54.72500228881836,-32.60000228881836,16.625
1708009834634195500,13.416195556640625,-54.5625,-32.212501525878906,16.6875
1708009834644018400,13.426018310546874,-54.525001525878906,-32.400001525878906,16.024999618530273
1708009834653839600,13.435839599609375,-54.53750228881836,-32.775001525878906,16.137500762939453
1708009834663661300,13.445661376953124,-55.0625,-32.45000076293945,16.8125
1708009834673475600,13.4554755859375,-54.72500228881836,-32.337501525878906,16.662500381469727
1708009834683292700,13.465292724609375,-54.712501525878906,-32.22500228881836,16.512500762939453
1708009834693111800,13.47511181640625,-54.6875,-31.850000381469727,16.25
1708009834702932700,13.4849326171875,-54.837501525878906,-32.17499923706055,15.75
1708009834712746200,13.494746337890625,-55.04999923706055,-32.775001525878906,16.137500762939453
1708009834722563300,13.504563232421875,-54.900001525878906,-32.60000228881836,16.475000381469727
1708009834732377300,13.51437744140625,-54.86249923706055,-32.13750076293945,16.0625
1708009834742193400,13.524193359375,-54.53750228881836,-32.22500228881836,16.36250114440918
1708009834752009700,13.534009765625,-54.22500228881836,-32.47500228881836,16.649999618530273
1708009834761830100,13.543830078125,-54.41250228881836,-33.150001525878906,16.25
1708009834771649800,13.55364990234375,-54.23749923706055,-32.73749923706055,16.625
1708009834781468000,13.563468017578124,-54.6875,-31.962499618530273,16.399999618530273
1708009834791281400,13.573281494140625,-55.35000228881836,-32,16.0625
1708009834801097700,13.58309765625,-55.04999923706055,-32.51250076293945,16.17500114440918
1708009834810916600,13.59291650390625,-54.375,-32.9375,15.800000190734863
1708009834820733200,13.602733154296875,-54.6875,-32.25,16.200000762939453
1708009834830549800,13.6125498046875,-55.04999923706055,-32.36249923706055,16.350000381469727
1708009834840367900,13.622367919921874,-55.212501525878906,-32.78750228881836,15.975000381469727
1708009834850189800,13.63218994140625,-55.025001525878906,-32.26250076293945,16.05000114440918
1708009834860015400,13.642015380859375,-54.712501525878906,-31.962499618530273,16.55000114440918
1708009834869838600,13.651838623046874,-54.38750076293945,-32.36249923706055,16.512500762939453
1708009834879663000,13.6616630859375,-54.38750076293945,-32.47500228881836,16.649999618530273
1708009834889483300,13.671483154296874,-54.900001525878906,-32.60000228881836,16.625
1708009834899304700,13.6813046875,-55.04999923706055,-32.900001525878906,16.125
1708009834909126400,13.69112646484375,-54.86249923706055,-32.41250228881836,15.862500190734863
1708009834918948000,13.700947998046875,-54.875,-32.36249923706055,16.350000381469727
1708009834928767700,13.710767822265625,-54.75,-32.82500076293945,16.92500114440918
1708009834938585600,13.720585693359375,-54.900001525878906,-32.1875,16.837499618530273
